mean_accel_x,mean_accel_y,mean_accel_z,mean_gyro_x,mean_gyro_y,mean_gyro_z,std_accel_x,std_accel_y,std_accel_z,std_gyro_x,std_gyro_y,std_gyro_z,skew_accel_x,skew_accel_y,skew_accel_z,skew_gyro_x,skew_gyro_y,skew_gyro_z,kurtosis_accel_x,kurtosis_accel_y,kurtosis_accel_z,kurtosis_gyro_x,kurtosis_gyro_y,kurtosis_gyro_z,max_accel_x,max_accel_y,max_accel_z,max_gyro_x,max_gyro_y,max_gyro_z,min_accel_x,min_accel_y,min_accel_z,min_gyro_x,min_gyro_y,min_gyro_z,activity
-1.6949766181750001,5.99729630775,7.072667895,-0.13337192861249997,0.09306545173750001,0.10897026081250001,1.0939135672271818,3.0561295417777425,1.7676975091169014,1.3431331258728598,0.5495419189993498,0.410019850053949,0.041613685260898314,-0.5499075290652575,-0.3686054467352352,0.44754510092643934,0.6086746108435043,0.05551153354839513,0.1510667868467892,-0.7408938967821306,-0.4126142924479601,-0.972077696820457,-0.04205283413198879,-1.039362971090494,1.1282654,11.820679,10.64769,2.3851776,1.590332,0.89637756,-4.6034546,-0.997879,2.382904,-2.0420532,-0.86509705,-0.7004547,NOT FALL
-1.7156862266750004,5.2417756918750005,7.248432373750001,-0.2708311086125,0.07145462113750001,0.022723960925,1.0768467500475831,3.173440534065333,1.5773540384308815,1.440534903900533,0.5265019257809137,0.42364519050697347,-0.04324486096535109,-0.15759299496412904,-0.5774265183109946,0.4706504231302911,0.8013603066900902,0.23857150487910164,0.24080682448688462,-1.0616769881044346,0.10470065220985036,-1.119295665697443,0.9990239608250944,-1.247124462388239,1.1282654,11.820679,10.64769,2.3851776,1.889679,0.89637756,-4.6034546,-0.997879,2.382904,-2.0420532,-0.86509705,-0.7004547,NOT FALL
-1.5629964808,5.570320121375,7.122348038749999,0.2613222128,-0.019865225650000005,0.10536251101250001,1.0049732751032052,2.9226548811212596,1.4338369083546112,1.4607496393597694,0.554707264990914,0.3819894291845043,-0.02107382389618055,-0.21875708617228545,-0.7024492495880239,-0.013270346411618327,0.8974788245480575,-0.18368557946784467,-0.008173905618257038,-0.8328334264212445,0.39331483565347947,-1.4383378807131595,0.9601315487522579,-0.8285202177065081,1.1282654,11.820679,9.749863,2.3851776,1.889679,0.89637756,-4.5795135,-0.60762024,2.382904,-2.0122375,-0.86509705,-0.7004547,NOT FALL
-1.5781991949625,6.0929445038750005,6.9050745175,0.04593925863749998,0.005953789675000004,0.018263816675000002,0.9395976025291292,2.95298464286473,1.5506604075942592,1.288023463322667,0.5270314048404023,0.3629303365161707,-0.18567533717938167,-0.6092629895913236,-0.4752863852263215,0.06442778843566202,0.8360690375285109,0.29546338373401476,-0.006504404352923654,-0.8142766453966823,-0.328567567575095,-1.2094835292610748,1.4243862155042573,-0.46990119641673145,0.22087097,10.625977,9.749863,2.2136688,1.889679,0.89637756,-4.5795135,-0.60762024,2.382904,-2.0122375,-0.86509705,-0.7004547,NOT FALL
-1.501853367125,5.814199827625,7.098196433749999,-0.15038852128750002,-0.020158384187499996,-0.05060558339999999,0.8441630998281596,2.820242761175851,1.6573478789099407,1.3726907617592823,0.4767138936077614,0.2903832163946781,-0.00041719514106709147,-0.5436242104010954,0.051302763661256495,0.2884004706774834,0.8736470031592705,0.09760443539843153,-0.7565369687949532,-0.8105802483465427,-0.3058237970258766,-1.3370490272322662,2.308571062382873,-0.8214864461039935,0.22087097,9.598862,11.7969055,2.2136688,1.889679,0.6108856,-3.391983,-0.60762024,3.730835,-2.0122375,-0.8597717,-0.5832825,NOT FALL
-1.413507265875,5.156034276999999,7.20030880125,0.0497213372125,-0.0817573541875,0.0143756866875,1.2999004142826485,3.3505325851383287,1.936178122302606,1.3705317124817662,0.4413701708568835,0.2965422286717288,1.4818226205588922,-0.38069685786332763,0.3174718981429624,-0.12196948204451116,0.1660673608599165,0.31099222789505615,12.37114736239008,-1.0283881747864696,-0.3516493671358534,-1.1719745976252691,-0.995816821683682,-0.4979467818612098,5.8711853,9.598862,12.330811,2.2136688,0.7999115,0.70036316,-6.32489,-3.0209656,3.730835,-2.4234314,-0.8597717,-0.58114624,NOT FALL
-1.2311586325500001,6.248927474749999,6.843272982499999,0.1997634894625,-0.029785728062500006,-0.06425456973749999,1.2710782723380687,3.217475121668114,1.9378761666692361,1.4232000758995675,0.46877149375417554,0.31021984431047467,1.337168551960676,-0.9937705981482066,0.6830868694703864,-0.3174433346280125,-0.3988470249686652,0.4997399543054145,12.920804758003664,-0.020438112831172806,0.003988206509994541,-1.2672742772186563,-0.41265450336823317,-0.01237507505186386,5.8711853,10.302765,12.330811,2.1646729,0.7999115,0.70036316,-6.32489,-3.0209656,3.730835,-2.4234314,-1.3625793,-0.63760376,NOT FALL
-1.1394601778,6.0582593885,7.02873402,-0.14784526803749998,-0.003633116762500005,-0.02364177705,1.2632376970981363,3.1123003468673933,1.8139594284450693,1.3690837840884145,0.48816437025376275,0.33028709631362035,1.2146281026816663,-0.9768299637363393,0.7093431189319763,0.18841673439143683,-0.413305448756701,0.11402177764644016,13.01161361181224,0.082014866107051,0.2825466271097734,-1.166516084251307,-0.5839461400734676,-0.5795779603076054,5.8711853,10.302765,12.330811,2.1646729,0.7999115,0.70036316,-6.32489,-3.0209656,3.7571716,-2.4234314,-1.3625793,-0.63760376,NOT FALL
-1.3354257569250003,5.013519652875,7.2909294000000004,-0.2855979932875,0.045794869200000005,-0.010952377337500001,1.3532019590290598,3.3883068395223903,1.6319461901651289,1.4836948841724331,0.470387991130583,0.33598478037776447,1.1792094206076764,-0.3241775434000909,0.5151174904136026,0.20849161204802294,-0.6047846045492254,0.08880690493725356,10.123765389283534,-1.0382631434627614,0.37975029054902176,-1.353015350783962,-0.09536623758665685,-0.7598999037222076,5.8711853,10.302765,12.330811,2.1646729,0.8925934,0.70036316,-6.32489,-3.0209656,4.0181427,-2.4234314,-1.3625793,-0.63760376,NOT FALL
-1.281376648425,6.039045501125,7.084130652499999,0.3225614562125,-0.05342120942499999,0.03786296735,0.8940258602576078,2.876441408688113,1.4200312854688337,1.5206041223314046,0.526069261656995,0.34802965556614446,-0.20385396878905654,-0.6454700884798533,-0.07535395007499443,-0.25567409129106794,-0.6851640565161324,0.12343391643429023,0.33256455571033694,-0.725266605324776,0.14605647767264385,-1.4252167990411337,-0.317528347293071,-0.29566831356270207,0.8720856,10.302765,11.059494,2.3947601,0.8925934,0.91874695,-3.731964,-0.79914856,2.8785095,-2.3328705,-1.3625793,-0.63760376,NOT FALL
-1.3504194298749999,6.308842458625,6.92344988375,-0.03129272653749998,-0.004446027974999994,0.0536682112625,0.8698894730879312,2.9601795406832356,1.5239320206975617,1.3620385710586351,0.4675657903562113,0.3242685840906831,-0.18653302477129027,-0.781206184476005,-0.09263655485116296,0.13910554207042067,-0.748423097167163,0.30166331325274787,0.41260525620195265,-0.6499045368554572,0.0727854402596253,-1.1049096102748603,0.2541585777220834,-0.19761346717939965,0.8720856,10.094467,11.059494,2.3947601,0.8925934,0.91874695,-3.731964,-0.79914856,2.8785095,-2.3328705,-1.2922668,-0.60565186,NOT FALL
-1.57595329675,5.359331882499999,7.221856884999999,-0.37681122362499997,-0.0032348612500000054,-0.004588509549999999,0.8511282050696358,3.1124170993229883,1.6169187509251948,1.5600641339505328,0.47506434836780176,0.33561442456533963,-0.2605127205800783,-0.3127072816087606,-0.3394287316887816,0.3765690448079562,-0.6325781133642389,0.6298147347740625,0.007637982112470354,-1.129565709329268,-0.12137548233914641,-1.3417241544665683,0.28344864271263503,-0.2480774209755663,0.47705078,10.094467,11.059494,2.3947601,0.9330597,0.91874695,-3.731964,-1.3186951,2.8785095,-2.4585724,-1.2922668,-0.45118713,NOT FALL
-1.38935509025,5.7591331325,7.134827817499999,0.37799586925,-0.16608676766250002,-0.022511101825,0.8763798888939408,3.070558780339844,1.5450008793087089,1.5723254630095953,0.5111337213337559,0.3255115933504915,0.20048583278711624,-0.5516907294934466,-0.3141892366584244,-0.34705729109802047,-0.2862138639320947,0.8232316154983724,0.7841254216004887,-0.7553653609104622,-0.04452970093397779,-1.3325539833070144,-0.6516516609470293,0.17086483637725314,1.5304871,10.154312,10.334045,2.500229,0.9330597,0.91874695,-3.4111328,-2.0992126,2.8785095,-2.4585724,-1.2922668,-0.45118713,NOT FALL
-1.3656824112500001,6.644569036999999,6.713058688749999,0.10405005887500005,-0.0385622021375,-0.0786767958625,0.8497419021065915,3.109368875265926,1.5713151962958891,1.4540627023256802,0.4698906307394493,0.25640856050716926,0.047514857975092695,-0.9737991574009852,0.08609366132161314,-0.08951202574579634,-0.2629262432452878,0.48952150244345655,0.9553052747688349,-0.11263019877332736,-0.5022812238094656,-1.2335180607637655,-0.42670549691776216,-0.6871135799123911,1.5304871,10.575699,10.334045,2.500229,0.9330597,0.5118103,-3.4111328,-2.0992126,3.1777802,-2.4585724,-1.2209015,-0.45118713,NOT FALL
-1.5257051435000002,5.468955827499999,7.19501153375,-0.45774402712499995,0.019801520725000004,-0.18863754243750003,0.8682980640471197,3.287518553929211,1.5997615668374179,1.6490988950514578,0.4820270706885254,0.3162248514407943,0.16863502300641986,-0.4193491311001631,0.028340360158471203,0.41330647858426883,-0.35502017963825855,0.1668194305404601,0.8865704352733466,-0.9776923836398139,-0.1067709257526892,-1.3439460578468025,-0.4803444749823176,-0.4630941726090554,1.5304871,10.575699,11.878311,2.500229,0.9330597,0.5118103,-3.4111328,-2.0992126,3.7476044,-2.6971893,-1.2209015,-0.815506,NOT FALL
-1.386691854,5.579657766875,7.0615053125000005,0.38317508812499995,-0.12307644038750001,-0.10221767436249998,0.8395215202746907,3.333675698603415,1.5306438509155464,1.663948669841494,0.522206213240735,0.3402775364963019,0.2196905313737753,-0.4482694793604542,0.12169797494450488,-0.3650191807326629,-0.3070194001927887,-0.23356247907399375,1.0180753929017126,-1.0335690925814058,0.1614616769365682,-1.3155915647552021,-0.5583459769349433,-0.6686276086740666,1.5304871,10.575699,11.878311,2.500229,0.89471436,0.5118103,-3.4111328,-2.0992126,3.7476044,-2.6971893,-1.420105,-0.815506,NOT FALL
-1.3760673498750002,6.70295773375,6.673135933749999,0.108110621125,0.015314673475000002,-0.09790325165,0.6923610450953536,3.213713426808674,1.5025145822742816,1.5636922291682223,0.4751159694137143,0.3455952437914494,-0.369294803709421,-0.9336014824008505,0.5064041852207538,-0.11497643096257992,-0.5766968664053096,-0.289283834976077,0.3679277933712344,-0.3729168546495072,0.4039591680619963,-1.2709394549795305,0.2707186198281435,-0.7643484309376873,0.5297241,10.721741,11.878311,2.343628,0.89471436,0.5118103,-3.3776245,-0.54776,3.7476044,-2.6971893,-1.420105,-0.815506,NOT FALL
-1.581400487375,5.2594629095,7.18307128875,-0.52319183275,0.047739982474999984,-0.168131256175,0.7324143288797729,3.478261331806311,1.4101423306252647,1.7226997295195217,0.4548599323662198,0.3084776262395458,-0.008833533578106545,-0.34967952397579566,0.42040621113932264,0.45827119160525226,-0.877632365144821,-0.17384431989271892,-0.1595676423855279,-1.2069104428097877,0.32996971953529375,-1.2861595364821463,0.8683405502382051,-0.6516139475722422,0.5297241,10.721741,11.878311,2.343628,0.8457184,0.47665405,-3.3776245,-0.9404144,4.2623596,-2.719574,-1.420105,-0.815506,NOT FALL
-1.4265853868499998,5.794657315249999,6.940299382499999,0.4454795789624999,-0.0718629837375,0.0259462354625,0.7993526571378086,3.4642856542016833,1.2444901696262964,1.756555812070728,0.4937011506930558,0.25765484723491716,-0.13597884952213762,-0.5203116884658959,0.36462960421481344,-0.391176862936224,-0.7005464167196465,0.005591783658306736,0.4126360255836685,-1.1316999922474182,-0.33849116265788926,-1.316923020346017,0.1640025786617798,-0.9286344387910526,0.5297241,10.721741,10.413055,2.6163483,0.8457184,0.49797058,-3.5906982,-0.9404144,4.568817,-2.719574,-1.420105,-0.50338745,NOT FALL
-1.3557170849750002,6.76164549575,6.715961998750001,0.014073939462499995,0.00859069913749999,-0.026104736662499996,0.7394501771731106,3.2968728544670878,1.2489944037051253,1.641375814040745,0.411321135988358,0.23728350543815244,-0.4358707434578991,-0.9949106218665826,0.46677097099430137,0.01708669161510692,-0.6436979710175502,0.3619394439378684,0.8343909437588515,-0.3026430548925423,0.15629091812789975,-1.2901436362907275,0.8463890953759612,-0.43488465912969865,0.48182678,10.721741,10.413055,2.6163483,0.8457184,0.49797058,-3.5906982,-0.9404144,4.1306763,-2.719574,-1.2741547,-0.50338745,NOT FALL
-1.559793089475,5.075229267625,7.1240236075,-0.4881721537625,0.042066384212499995,-0.048368835912500005,0.8600260903284226,3.6998043211342466,1.4899882681676209,1.771756031348231,0.42432875059173036,0.2599024204804428,-0.38373181452807326,-0.25626056966502747,0.6214733310694868,0.42922540139019516,-0.7055715325678635,0.5203205667578553,0.32767395991824433,-1.4344150057685088,0.8540244611714263,-1.2724080560305462,0.6975799023826612,-0.7201297153595929,0.48182678,10.479935,12.443344,2.6163483,0.81695557,0.49797058,-3.933075,-1.4982605,4.1306763,-2.719574,-1.2741547,-0.46929932,NOT FALL
-1.3441055293125,6.011452681874999,6.7992500225,0.5333368287375,-0.0874042512375,0.048291205574999996,0.9444902682314333,3.5163154611956906,1.7800172729215904,1.7850579050335487,0.47859196665701165,0.29777096891209354,-0.2891510516088456,-0.45275657888501314,0.6273338507179456,-0.4353190196057333,-0.46474070059292955,0.10832600334825343,0.3286660448906593,-0.9897210136237082,1.0695777680007668,-1.2614132179248787,-0.1626699807834,-1.2575795465266655,0.56562805,11.679428,12.443344,3.10849,0.69018555,0.5682678,-3.933075,-1.4982605,2.7492218,-2.639679,-1.2741547,-0.46929932,NOT FALL
-1.3014888789625,6.632238940625001,6.812478061249999,-0.10856399523749997,-0.014766691812499993,-0.04084472742499999,0.8966116128122114,3.450257270979886,1.9318896423147536,1.6454507377692864,0.4984624780840088,0.27458290014717185,-0.2668484727636195,-0.7003716516738066,0.646404458947331,0.18662435001704966,-0.36868592774318204,0.7048525534787575,0.17714629533480064,-0.35340922989616663,0.4156020471419253,-1.197770677150145,-0.4304320272117108,-0.5248067564627119,0.56562805,12.620346,12.443344,3.10849,0.93200684,0.5682678,-3.933075,-1.4982605,2.7492218,-2.639679,-1.2017212,-0.46929932,NOT FALL
-1.4924562482125,4.941782369125,7.149551592500001,-0.3565303804875,0.035952949724999995,-0.041484261300000005,0.9528783951990624,3.7723228727346414,1.9366712515613165,1.813206437747319,0.5182960500233175,0.2800373334218039,0.10494515771136734,0.0732006203232595,0.3052102309813956,0.2864353015675281,-0.606197730105436,0.6836010511383285,-0.3467751885113164,-1.065592314113871,0.0798364752230567,-1.3545045644728864,-0.4274829842904153,-0.6834197405287732,0.56562805,12.620346,12.443344,3.10849,0.93200684,0.5682678,-3.933075,-1.670639,2.7492218,-2.672699,-1.2017212,-0.46929932,NOT FALL
-1.2666831980875,6.411972634749999,6.8781391337499995,0.5475065169875,-0.08609924287500001,0.030354498825,0.8703409065647378,3.4242006114557926,1.7447036455766056,1.7773728492611163,0.5323264976301858,0.26095145961990934,0.14467515197114147,-0.4179002700927285,0.3698527443079707,-0.47571622069221214,-0.22406578055889903,0.4624141228728656,-0.8803768712847311,-0.6225345049469531,0.5204906080786431,-1.188247562409019,-0.6987042679821163,-1.0722513663881104,0.56562805,12.620346,12.397858,3.10849,0.93200684,0.5682678,-2.723999,-1.670639,2.7492218,-2.672699,-1.2017212,-0.37236023,NOT FALL
-1.3740932471250003,6.5181854285,6.975882552499999,-0.2810827306375,0.01780471857499999,-0.04970073738749999,0.7541932266059715,3.2948325900764215,1.5196857096039955,1.6667935554904936,0.4995320570618055,0.21136052427615015,0.008659581803555683,-0.6328731298779371,0.4321786809261781,0.26472060059867214,-0.23717837577604498,0.49391132462976745,-0.8381509433436354,-0.3347949267410999,-0.09898933839255974,-1.1987144460310537,-0.33025552016362303,-0.5573936485221531,0.23283386,12.620346,11.164841,2.7143402,1.1376038,0.41275024,-2.723999,-1.670639,3.931961,-2.672699,-1.167633,-0.4128418,NOT FALL
-1.5175657287500002,4.887853447375,7.132493236249999,-0.18904419237499998,0.025035665725,-0.0448671342,0.8784294353089354,3.6469993506630316,1.3628154191356094,1.8340781952913783,0.46566378962502314,0.22654659918019562,0.06826372741982442,0.007580215647203055,0.13935868050958086,0.08270414797172834,-0.31536449334432415,0.37503657358180653,0.2994101917340761,-1.2916241560656305,-0.10642183206284095,-1.5000842350241257,-0.1720305778049176,-0.889270414957025,0.7978668,11.6483,10.561493,2.7143402,1.1376038,0.44363403,-4.2706604,-1.670639,3.931961,-2.672699,-1.1218262,-0.4128418,NOT FALL
-1.473632622125,6.679345525124999,6.6654148300000005,0.46758480137499997,0.009856223400000003,0.021499252262499997,0.8545893991006415,3.3968628573883186,1.4359162292222665,1.7467095009122529,0.4664012131437309,0.3095343530263601,-0.03186002941832195,-0.7551142420823145,0.23883140142716414,-0.3576808293640089,-0.1168028412029162,0.49281944612865525,0.6520902954361727,-0.548704706588341,-0.09432275619629316,-1.2402233629472341,-0.3330004280540111,-0.7846356915299535,0.7978668,11.6483,10.561493,2.7857208,1.1376038,0.68013,-4.2706604,-1.1487122,3.9056244,-2.658844,-1.1218262,-0.4682312,NOT FALL
-1.5987594651,6.297350506375,6.68190461125,-0.420166967125,0.17648983035000002,-0.009406661925,1.0338095306388237,3.3335794169333437,1.5510932627116456,1.6617749690912536,0.43765250930671973,0.3076435887292281,-0.8220227983244172,-0.5627052093459357,0.25419482376748437,0.5314293682343839,-0.3499644674656498,0.6506851090078396,2.440611291381467,-0.7602661909240829,-0.5764264245468196,-1.0307031303476577,-0.2255741529098012,-0.4562289148944565,0.7978668,11.377762,10.561493,2.7857208,1.1376038,0.68013,-5.597046,-1.1487122,3.9056244,-2.658844,-1.0142365,-0.4682312,NOT FALL
-1.6701358868500003,5.681142825125,7.104331213750001,-0.1034109097,0.1632266977875,0.13082199077499998,1.2972195453729303,3.463527515922684,2.6835782357516527,1.5554260308347294,0.436716741354567,0.3486644461899417,0.12959763014924208,0.02885916801314742,2.3979393307185877,0.19926022622792444,-0.4712770443483543,0.0011831953183854395,1.518262448957536,-0.9327038518025628,9.471065126425513,-1.0092410957212985,-0.3889702253557932,-1.3342292314844084,2.8449097,13.278748,19.874939,2.7857208,1.0023041,0.74723816,-5.597046,-1.1487122,2.414032,-2.658844,-1.0142365,-0.4682312,NOT FALL
-1.541896249825,6.549370604750001,7.17717473625,-0.006032752624999982,0.1395376198625,0.25947914032499997,1.7167249538846994,3.087917953725705,3.867423058221623,1.2902753764698331,0.6172194216972356,0.3726462158423746,0.7677899390873356,0.44034838703097157,2.6391485555236582,0.34415800647228445,-0.7593844819690907,0.010844958101715034,2.474571779749235,-0.35838909410329167,9.339919537702592,-0.354852465295151,1.0119424065698661,-0.5312326884922189,4.293396,14.626694,27.122192,2.7857208,1.6254883,1.2106323,-5.597046,0.49371338,1.8274536,-2.1826782,-1.8483429,-0.4682312,NOT FALL
-1.336772921325,5.906287799749999,7.6991105937499995,-0.41806354720000005,0.23044452455000003,0.2264291756875,1.9967014638636447,3.0181476595314005,3.971599682836569,0.8411416874254936,0.8253042206461291,0.37122349381134945,0.16840671952276076,0.8273738144240809,2.112662647746169,-0.5415711012791237,0.09166140929214357,0.029896514031083687,1.2857871098281581,0.37064961272430574,7.001809206940477,-0.6954662550938466,0.7581369908508506,-0.00392925211949402,4.293396,14.626694,27.122192,1.0834198,2.7759705,1.2106323,-7.3472137,0.49371338,1.8274536,-2.1826782,-1.8483429,-0.78034973,NOT FALL
-1.2637798293500002,5.180484782875,8.103072738749999,-0.328407860825,0.277436252975,0.36485996169999996,2.1189936449513795,3.583087073880554,4.391053520472343,0.7697664823984554,0.8742675405800495,0.3603052287995962,0.25972287720945664,0.4378575399090676,1.3696432245885892,-0.7832673670010495,0.02884370950504775,-0.4374874257616158,0.7072245453189043,0.3682043171741567,3.7464114888011038,0.16480753348469745,0.11844218771177673,0.3372861341320039,4.293396,14.626694,27.122192,1.0834198,2.7759705,1.2106323,-7.3472137,-3.5979767,-1.5914764,-2.2700195,-1.8483429,-0.78034973,NOT FALL
-1.1461646981875,5.55733242175,7.84081821375,0.019520568562500007,0.2811912513625,0.3694011683625,1.9588806444322062,3.732276676560222,3.8964365384151596,1.1450662737522135,0.9265771359450317,0.3863421425480301,0.12735425686294355,0.005610115777836358,1.558696051267365,0.17677794449086479,-0.02468482952773436,-0.22789897747502894,1.6305974612667988,-0.31948244086840516,6.258178959347983,-0.3002987419960843,-0.39436906103415215,-0.2088544240698469,4.293396,14.626694,27.122192,2.520462,2.7759705,1.2106323,-7.3472137,-3.5979767,-1.5914764,-2.2700195,-1.8483429,-0.78034973,NOT FALL
-1.2198465328375,6.450608839500001,7.66367762125,-0.22443752417499999,0.4581050846125,0.44313068530000005,1.7533848158769496,3.676914667992405,2.800281669662314,1.2670080129532608,0.8006240324352036,0.45330528436234374,-0.27867334857896214,-0.6868168143166723,0.10555591881261742,0.3318283264227193,0.013330932585112691,0.11076052709289017,1.7787028718810616,-0.38209211326250925,1.523964537449042,-0.5244318550090283,-0.09394261999611286,-0.11264857180712307,3.6278076,12.277969,16.410538,2.520462,2.7759705,1.5195465,-7.3472137,-3.5979767,-1.5914764,-2.76857,-1.5010681,-0.78034973,NOT FALL
-1.3887575112125001,5.405180744875,7.585566921250001,-0.5179718026,0.33365592834999996,0.55486335825,1.4907473159348485,3.9788643303810147,2.5701241504388497,1.5702024920103588,0.7090779727559136,0.35768114563962833,0.25854237150949405,-0.18493106052299293,0.25983527187520117,0.23711917053390147,-0.563457399922094,0.5584057229422607,1.5123373772251458,-1.180802695620233,2.7381785714452906,-1.0174890871313886,-0.20972099622681295,0.0027789074096307154,3.6278076,12.277969,16.410538,2.520462,1.4710236,1.5195465,-5.4653625,-3.5979767,-1.5914764,-3.0945435,-1.5884094,-0.17634583,NOT FALL
-1.4007284109625,6.598960300499999,7.07428418375,0.28138904665000003,0.052745818987500005,0.4906679173,1.196898735259426,3.526572571485278,1.550161817930857,1.779692244010707,0.7694412371118196,0.43815323492629554,0.029038893869341106,-0.5777672262348146,0.06840427982757015,-0.434467424927024,-0.4268906473348704,0.22139226704529022,1.5897459563165972,-1.0978746884765764,-0.25031843055656555,-1.1035495365834804,-0.17131848435933295,-0.5175133177432025,2.2248077,11.423248,11.466507,2.5854492,1.4092407,1.5195465,-5.4653625,-0.01864624,3.5201569,-3.0945435,-1.9090576,-0.29779053,NOT FALL
-1.321420092475,6.786306166624999,6.915399003749999,-0.393815230425,0.003691102262500012,0.33601799145,1.2290118773750476,3.2244711662944985,1.4371153460586585,1.7349331710689342,0.712363303279545,0.5506508458121674,-0.03813709357399687,-0.6844845419104966,0.31035147182677886,0.26445484922322315,-0.4371860695379401,-0.13389461499289637,1.2700144898907766,-0.7293380878966165,0.3964015204312825,-1.1308247480173705,0.34256066440318156,-0.1561742381743274,2.2248077,11.423248,11.466507,2.5854492,1.4092407,1.5195465,-5.4653625,-0.01864624,3.5201569,-3.0945435,-1.9090576,-0.95399475,NOT FALL
-1.28610552955,5.0473676236125,7.044805353749998,-0.1715084032625,-0.22656593186249996,0.14152774781250002,1.0743242859036506,3.5145767884692583,1.400859896228802,1.944468309805822,0.6844439367728458,0.48026777628784073,-0.05456954699438805,-0.15088084795008208,0.44917617097866297,0.06982367439520884,-0.2692570846287612,-0.2647862260452502,-0.28299377361539557,-1.211214986034828,0.671299946493161,-1.4774835578614354,-0.08621713737983061,-0.4088948593352826,0.912796,10.271637,11.466507,2.8176727,1.2462616,1.062561,-4.1916504,-2.6283264,4.0444794,-3.0945435,-1.9090576,-0.95399475,NOT FALL
-1.17259044115,6.8486156119875,6.72787304875,0.4736162229875,-0.2019454948125,-0.0238683722625,1.0441242686602688,3.3740004253916243,1.4037002278537076,1.7612028010150331,0.6188801541982669,0.44374721375653076,-0.2872075650957587,-0.9602101596093768,-0.14985843010380223,-0.3474333226142592,-0.394653503028109,0.44070517307420704,-0.09272190272304748,-0.05865848012950625,0.44248816732210283,-1.2612218181873747,0.30611432876917277,0.2789158485845853,0.912796,11.25087,10.702759,2.8176727,1.2260132,1.062561,-4.1916504,-2.6283264,2.9527283,-2.5864105,-1.9090576,-0.95399475,NOT FALL
-1.2083835561499998,5.7928924301125,7.034122083750001,-0.5315406753874999,-0.016163254262500003,-0.16360397595,1.0386271117947252,3.62963235441016,1.4869568987232176,1.7889613733959244,0.6244559266919164,0.37422462124714867,-0.3209105072293405,-0.5455115190102959,-0.398308915571316,0.46308394818788295,0.029993169863345884,-0.07124988414960583,-0.13157349091071469,-0.7764937772436586,0.22817533799279266,-1.1145083948888062,-0.4958690789859115,-0.693597999317586,0.912796,11.25087,10.702759,2.8176727,1.4230957,0.56721497,-4.1916504,-2.6283264,2.9527283,-3.05513,-1.4467316,-0.95399475,NOT FALL
-1.2771276415500001,5.3484386557375005,7.045344542499999,0.20145473862500002,-0.08616466551250002,-0.05769024157500001,1.0765795534332723,3.879462717171404,1.3911203351438828,1.986449861839125,0.6931969864838442,0.42264484663967555,-0.055219295226755415,-0.2769966808706265,-0.47640380433139184,-0.1664912922494645,-0.13067319017305398,0.567756753263336,-0.21966756218795336,-1.2386093569825767,0.6603973453087812,-1.5089345139158863,-0.7159598118355186,-0.10766149721390272,1.0420685,11.25087,10.702759,2.8485718,1.4230957,1.0114288,-4.1916504,-2.6283264,2.9527283,-3.05513,-1.484024,-0.7739563,NOT FALL
-1.29759788135,6.944652575000001,6.777373312500001,0.1717203176875,-0.023779869212500006,-0.0993957541875,0.9211534133861105,3.329623547262063,1.3590909517901775,1.7935090837908632,0.6020264002620217,0.4151067901818449,0.2097256365254456,-1.0866570028990734,-0.5026936925643928,-0.11409739994757485,-0.2586974275535039,0.7179782569047354,-0.37173939193510686,0.12467476842976533,0.20764626625959437,-1.3012079211757643,-0.2205548630011882,0.3307918028672243,1.0420685,11.25087,9.749863,2.8485718,1.4230957,1.0114288,-3.2674866,-2.0010376,2.9527283,-3.05513,-1.484024,-0.73028564,NOT FALL
-1.431942175,5.258056651375,7.125429915000001,-0.47498893351249993,-0.011236380975000003,0.013509750462499998,0.9419595680333569,3.456659997824394,1.1978453850151145,1.8340691745094082,0.6091913585975721,0.46390223367750294,-0.28336203031952184,-0.29320092982007523,-0.08891816155887691,0.37294128692116035,-0.33141593176604817,0.24594629506962548,0.9099460318005628,-1.240846202932923,-0.055510932425119286,-1.2319187016352022,-0.28190585174207516,-0.7303909446633812,1.0420685,10.606827,10.0060425,2.8485718,1.4230957,1.0114288,-4.5411987,-2.0010376,3.857727,-3.05513,-1.484024,-0.73028564,NOT FALL
-1.1749549864,6.19978582325,6.87170429125,0.5422987009875,-0.174834822725,0.082192611275,1.0900253634826342,3.3848916536296225,1.1441431493782426,1.7733389855983785,0.5810328756791937,0.40055636336031236,0.05844854305958751,-0.4672143198962805,-0.02083410315183257,-0.4891806690743711,-0.5240162973693089,0.342986977212364,0.7238784616004881,-1.1047281306350574,-0.0589202174607788,-1.1488029149059455,-0.8116433966191772,-0.13550628680138388,1.719635,11.590836,10.0060425,2.8485718,0.79138184,1.0114288,-4.5411987,-1.0002594,3.857727,-2.769638,-1.484024,-0.6951294,NOT FALL
-0.9112035794875,6.841252315125,6.8369289315,-0.24473228476250003,-0.17524719263750002,-0.06868839227499998,1.2174594028314796,3.4192631819300163,3.03644847915866,1.7858182867558658,0.5640965455660311,0.36874451669446806,0.08054983682218742,-0.1287938072776574,1.600836043110164,0.0016727904680803615,-0.4803992736556914,0.02514737458546022,0.43617986515519114,-0.3255429640876,7.822079223985515,-1.3020652234639134,-0.7347700622076823,0.223816960264545,2.3445282,15.814209,21.479065,2.5279236,0.79138184,0.77067566,-4.5411987,-0.42565918,-1.1557312,-3.5781708,-1.5436707,-1.0306854,NOT FALL
-0.6654987373375,5.1533105718625,7.0561183877500016,-0.14819278644999997,-0.13399467476250002,-0.03935375210000001,2.3498606646481375,4.265594143603903,3.3193615146882376,1.9903923747098817,0.7705239696544651,0.36729428007633835,-0.7100391303287318,-0.16166225621046376,1.3378655189476483,0.0029912855865532884,0.3626615093632555,0.01491340816984749,8.268328378861403,0.3182506890622183,5.009989941088021,-1.4884761506039625,0.44055815459183156,0.1899200531646219,7.087433,15.814209,21.479065,2.9103546,2.2785034,0.77067566,-12.355881,-7.5316467,-1.1557312,-3.5781708,-1.8898773,-1.0306854,NOT FALL
-0.5460878447125002,6.8058784292375005,6.726646224375,0.40542583575,-0.11451377911250002,-0.138557052125,2.350051729750873,4.262424724234028,3.416933143319561,1.84716430499231,0.818224294132238,0.31742031782671304,-0.8460076969303049,-0.8619410928528332,1.3548687415691196,-0.4068609893676149,0.40482665450875255,-0.33617176734421217,8.474354974968312,1.1889140305849235,4.846884796443648,-1.0991363869378712,-0.05375816624439311,-0.09800444459857882,7.087433,15.814209,21.479065,2.9103546,2.2785034,0.46920776,-12.355881,-7.5316467,-1.1557312,-3.5781708,-1.8898773,-1.0306854,NOT FALL
-0.7187093781875001,5.8969198026125,7.040226555625,-0.57935809825,0.028884314062500006,-0.093350028725,2.3304255024735405,4.3919472720497,3.4818240695863634,1.8147322885206065,0.7773028661800837,0.342641525396385,-0.679818871415036,-0.45110536527204165,1.062886791753182,0.45563805400405255,0.1899908692939058,-0.44571282687312525,8.620087235212141,0.3654152549076035,3.8920700381070716,-0.9547307698512295,0.16552949049086996,-0.42824144173434897,7.087433,15.814209,21.479065,2.9103546,2.2785034,0.46920776,-12.355881,-7.5316467,-1.1557312,-3.5781708,-1.8898773,-1.0306854,NOT FALL
-0.9171587014750001,5.2645214183625,7.108520701624999,0.215529446375,0.07710037147500001,-0.043855289125,2.294524688244375,4.245686782392343,2.136595619343606,1.9132776317410962,0.7503892220334526,0.2891393326331423,-0.5418682868236739,-0.515177865260124,0.3870447940007753,-0.1421444215785869,0.233245407936731,-0.3011733812787271,9.101345850942986,-0.07912187138509985,3.40906358866341,-1.44841547187168,0.18215322638003872,-0.47324678521307817,7.087433,13.257202,15.440887,2.9103546,2.2785034,0.46920776,-12.355881,-7.5316467,0.49388123,-2.9624481,-1.8898773,-0.7292175,NOT FALL
-1.04515877275,6.948393632875001,6.884542857875,0.127405549625,0.06206664961250001,0.0038019147124999987,1.0470667055501606,3.349894919324377,1.76078288936331,1.707874732236471,0.5606475417522893,0.27368183007623803,-0.57388048515041,-0.7338466212617415,-0.7790582826927739,-0.04970987177314169,-0.039561618634784336,-0.28406492161080926,1.9154338791745573,-0.2383827280674926,1.5399041843305818,-1.2522243435601006,-0.6328559738600243,-0.51914100702751,1.5568237,13.257202,10.506439,2.7154083,1.2377319,0.5682678,-5.154114,-1.6419067,0.49388123,-2.9624481,-1.1420746,-0.7292175,NOT FALL
-1.1598709084625,5.216458708125001,7.192318176249998,-0.5033906937,0.09923114498749999,0.0281835518625,0.9065262948387995,3.5753841680200127,1.6709812000767472,1.770874084522275,0.5157325488901174,0.2143689269956089,0.0025825901198280846,-0.23136525548397233,0.1238742077897889,0.38612231098125904,-0.05901439274063565,0.24071944098784764,-0.6672488701102521,-1.3419474965546774,-0.5972804339945896,-1.2159397485283998,0.14376845082705048,-0.5613576365139221,0.6470337,10.479935,11.334824,2.6759949,1.5594482,0.5682678,-3.2986145,-1.6419067,3.8840637,-2.9624481,-1.1420746,-0.40856934,NOT FALL
-0.7280466087125,6.9903825597500004,5.226798651325,0.024624252637500003,0.01405067256250001,-0.07591133430000001,1.1577031427280324,5.26161779994264,3.4809614799445603,1.5216745781410312,0.5634974836670007,0.6003718292423802,0.06693376913545379,1.5945839462062061,-0.6263715169003162,-0.08497348734600689,-0.4778178143461122,-2.9878554666141035,-0.8327165193611106,5.801907851012013,-0.8432652466807071,-0.807261773986236,1.0978331771319025,11.431785230458788,1.6286621,31.484268,11.334824,2.6759949,1.5594482,0.9988861,-3.2986145,-1.6419067,-1.9434204,-2.8527222,-1.9428711,-2.9255524,NOT FALL
-0.04641742908750003,8.06328407525,3.2787563524,-0.3980030055125,-0.024085237312499987,-0.029430961374999988,1.5191089100502475,4.953230079353207,3.968953454695437,1.0890844784632712,0.5051135223742109,0.599550598147715,0.17754100104616138,1.4496171620281224,0.25002792921427397,-0.6582080585192431,-0.212373218971095,-3.2193516472710764,-1.034371430871513,6.450682253776357,-1.5142412729168144,-0.1305744915728435,2.373024574205205,12.474231930706706,3.134613,31.484268,11.334824,1.8770447,1.5594482,0.9988861,-2.6737213,-0.59324646,-1.9434204,-2.8527222,-1.9428711,-2.9255524,NOT FALL
0.5768831272,8.383388142749999,1.5723493691,-0.38155460268749997,-0.1123018284625,-0.06842384311250001,1.5378366283855123,5.00009631497005,3.6361879584933265,0.9591107699319482,0.4593703561439015,0.5840843828621449,-0.5062897215754824,1.22934131814919,1.2368589526295775,-1.4529839983072437,0.1916177663026212,-3.321707412182336,-0.8849901227234951,5.767440990664019,-0.005114677480829499,0.7323433512037023,4.030518404137825,13.234152748805695,3.134613,31.484268,11.334824,1.162262,1.5594482,0.9988861,-2.6737213,-0.59324646,-1.9769287,-2.8527222,-1.9428711,-2.9255524,NOT FALL
1.289786149575,10.249667737500001,-0.53406963265,0.06020012025000001,-0.14982471472500003,-0.07213077506249999,0.9004251615603915,3.3717191896714653,0.7128255553227462,0.15956736980218175,0.37646606847012926,0.5851484709249826,-0.6249207935539666,4.331391747648211,0.7784463402475178,1.1828330662541857,-1.1404795277627293,-3.2842117521665184,0.3430575180195081,22.919042497734488,1.9415421550883094,2.390335099747853,5.260290023012697,13.033275635004518,3.134613,31.484268,2.272766,0.642746,0.57754517,0.9988861,-1.3186035,3.9868622,-1.9769287,-0.22012329,-1.9428711,-2.9255524,NOT FALL
1.4519031560750002,10.04352685625,-0.29333266898750004,-0.27146968764999996,0.0329750061375,-0.010571288825,0.7828636015184991,0.7496872774977793,1.0186465165431446,0.7569056579776097,0.5383555576901564,0.1531133628545097,-0.9146492815796661,1.3453061034504066,1.5918626955933197,-2.579036792862477,2.298624198632427,-0.2567757524903142,2.2373404006471143,3.7832863667167134,3.1004961205266897,5.76782695712261,6.151929469658745,-0.1207507224413269,3.134613,12.740051,3.4124146,0.2528534,2.2318878,0.31072998,-1.7423859,7.884613,-1.9769287,-3.1655884,-0.56230164,-0.4605255,NOT FALL
1.124047282225,9.3304439725,0.8701904236874999,-0.24113654905,0.09521388968750003,-0.011756324612499997,1.042113079834514,1.6122538512958027,2.0928747066877262,0.9388144989017919,0.5878925042188211,0.1738572446648964,-0.9472651445405252,-0.5816517273760591,0.7889452266739554,-1.2378656779770993,1.2489820703363823,0.143855576049355,1.1436838696616034,-0.1838074640337073,-0.7424652859891556,1.7587386329188943,3.564875362176717,-0.19353876444154539,3.4362793,12.740051,5.746765,1.4107971,2.2318878,0.47691345,-2.5228882,5.844757,-1.9769287,-3.1655884,-1.2611084,-0.4605255,NOT FALL
1.0313625350875,9.59090324875,1.4126258789875,-0.11612758575000001,0.029194640150000013,-0.01742973174999999,1.560514119172796,3.0717051708255796,2.4369853492608096,1.06745570465198,0.9408690667668678,0.3158056145669749,0.4204615531164505,1.8412873547628228,0.119399233957213,-0.8692954960206017,-0.3197325238955591,-1.5431328654247412,1.5816552497997058,4.975615647373401,-0.9020355353030913,0.7218680830617261,1.7739533482685426,5.392920801192165,6.814499,22.546707,7.2622833,1.8933563,2.406601,0.6771698,-2.5228882,4.824829,-4.2753754,-3.1655884,-2.9847107,-1.4661407,NOT FALL
1.0397727988875,9.17221771125,2.0655843681875,-0.12239952028750001,-0.00880851762499999,-0.021743963649999996,1.59210091876917,3.141981735270583,2.1630299701832563,1.0802588581371222,1.0120671055220416,0.3201484361725596,0.4305835865944371,2.081596852944078,-0.3862856564764054,-0.8001526256970445,-0.28475265951253875,-1.4693962891735468,1.281418986362234,5.31465907355328,0.07585575309176251,0.5492128430458254,0.9278549262404083,4.892207334932931,6.814499,22.546707,7.2622833,1.8933563,2.406601,0.6771698,-2.5228882,4.824829,-4.2753754,-3.1655884,-2.9847107,-1.4661407,NOT FALL
0.9937442790125001,9.00812526375,2.412384019575,-0.03809719209999999,-0.023056984987499984,0.0656999602875,1.806276860257519,4.267454202390672,2.199221723140632,1.0704655452891976,1.0836890758267717,0.5325735110280216,0.27844686775207744,1.648514620597645,-0.4723655043721543,-0.6233712309572529,-0.23251869183779694,1.1082264435292632,0.2876233060126987,2.2185871547999447,0.5332825093065172,0.012568064102618681,0.11273853034218106,3.730198794891404,6.814499,22.546707,7.2622833,1.8933563,2.406601,1.9746704,-3.3512878,3.1033936,-4.2753754,-2.922699,-2.9847107,-1.4661407,NOT FALL
1.2018598603624997,9.869978281249999,1.93147850595,0.11187877495000001,-0.07967605635,0.05029392507499999,1.9927289193558715,5.253933622586653,3.6575722945599907,1.2095937932883347,1.338328498501033,0.5625182491322398,-0.031213202485085783,1.2622785590927839,0.5076319057989371,-0.3328446220364746,0.5042059050535422,0.9788240215355978,-0.18787338809545684,1.03021973730067,4.474995677298115,0.06629636631932234,0.6335969193269526,2.6220548760479865,6.814499,26.511505,17.303574,2.5847168,4.0396423,1.9746704,-3.3512878,2.591034,-10.828293,-2.922699,-2.9847107,-1.4661407,NOT FALL
1.3511076037125,9.449017868750001,1.7750177417875002,-0.026193239550000018,-0.06761226642500003,0.031479073450000006,1.915668776862091,4.79947730357795,3.8143443155823658,1.2850738325927855,1.5551713586401212,0.512065482364035,-0.04604706331124266,1.4877994346989352,0.32131166465527095,-0.01041387968335881,-0.463560210890527,1.7894817378388936,-0.028516215406282353,2.187966252012502,4.108298988606198,0.011194424308787365,2.6774229925214312,4.176169798735471,5.8639984,26.511505,17.303574,3.0875244,4.0396423,1.9746704,-3.3512878,2.591034,-10.828293,-2.922699,-6.097412,-0.7279053,NOT FALL
1.140057757375,9.6241828575,1.8142828033375,-0.01526069850000003,0.032575607237500026,0.104169847575,2.03911529612267,5.445457857675433,3.8318017830651816,1.6378659836703862,1.5802452716434563,0.5956959960234613,0.08107807860638414,1.0214247285285074,0.2955706669425878,-0.039136652583562685,-0.5462150284515036,1.005830333487077,-0.4371403133416458,0.39992562882151805,3.9719101414796327,-0.784682390154809,2.4798313807135717,1.0419027301690464,5.8639984,26.511505,17.303574,3.0875244,4.0396423,1.9746704,-3.3512878,2.591034,-10.828293,-3.3498688,-6.097412,-0.9388275,NOT FALL
1.3306366019999998,10.00459171,1.7166893192125001,0.261108778,-0.1857101438125,0.0353408826625,2.0470237610756814,5.151778794779082,4.347935900193399,1.5187770566939631,1.5891167266622228,0.472526362931329,0.05595168677050615,1.013718162867848,0.29375541254132187,-0.1864125538795359,-0.28126304291956233,0.3536126467399315,-0.4442375826303664,0.6005408623601927,2.0427046766717867,-0.37392200836861367,2.174652917148129,-0.18423124216333875,5.8639984,26.511505,17.303574,3.0875244,4.0396423,1.1916962,-2.8054047,2.591034,-10.828293,-3.3498688,-6.097412,-0.9388275,NOT FALL
1.3050188082875,9.955061689999999,1.7285398577125002,-0.13708687085,-0.07682743049999999,0.0369781510125,1.8135137278318605,4.487020875745989,3.138101117016994,1.4910719986283527,1.4085528828500617,0.5191587964070045,0.3883999346575729,0.8593745240205575,-0.2321034695960741,0.04905373154079566,-1.1202488639254615,0.6861486506953848,-0.018438297935298387,-0.1646456381455681,2.326100580746643,-0.10169064514448278,3.728677679586907,0.12952814791846645,5.8639984,21.931396,11.172028,3.0875244,3.141632,1.3685303,-2.7575226,3.0842438,-8.788437,-3.3498688,-6.097412,-0.9388275,NOT FALL
0.9471157081625,9.573486306249999,1.8619564168750002,0.036231994325,0.04349441457500001,0.15917721003750002,1.6358460134314632,4.674170755375508,3.1957624756168928,1.5223988903887649,1.0706348356556432,0.5480324853960592,0.16598654238467483,0.8105907687728824,-0.1915254100195396,-0.11121538848059247,-0.5318029849256354,0.2786260855438064,-0.25384625365051816,-0.22724846820943112,2.6899135561788965,-0.35230368583212934,0.18085834404102563,-0.6354774874572868,5.236725,21.931396,11.172028,3.0363922,2.264923,1.3685303,-2.7575226,3.0842438,-9.686264,-3.3498688,-3.2361145,-0.9388275,NOT FALL
1.3925567675375,10.055678745,1.6560554683250004,0.06283683851249999,-0.049569703412500006,0.06530094178749998,1.8934071928489962,4.461196576373501,3.966088014224057,1.178286438514247,1.1185225451292171,0.5055236025782621,0.9079510451297707,0.9329289134460752,0.2846701875215765,-0.10374860266751186,-0.3044207552308815,0.5324002810163774,1.8793436179403242,0.15200792587718137,1.847246601939215,0.4587945135067013,0.4944152269253208,-0.15094482325836234,8.519165,21.931396,14.734589,2.8851166,2.8731842,1.3685303,-2.7575226,3.6277313,-9.686264,-3.0100555,-3.2361145,-0.91645813,NOT FALL
1.1390106244125,9.844001223750002,1.73949394795,-0.2113355613625,0.0956127178125,0.1012668615875,1.9539774591353054,4.586293079128086,3.281297440407268,1.2150643106212955,1.0421704745963223,0.5633488098596399,1.096843688742355,0.9242367686613581,0.2385184103811883,-0.10375633654905655,-0.46400036844000964,0.539300676716847,1.707265200878469,-0.1614593942566196,4.642646023862124,0.0992479922376921,1.1027637934650407,-0.42958334805202325,8.519165,21.723099,14.734589,2.6635437,2.8731842,1.3685303,-1.7687225,3.6277313,-9.686264,-3.0100555,-3.2361145,-0.91645813,NOT FALL
1.1409559312500002,9.82502692375,1.5247642658500002,0.16142692655,-0.0009000786874999944,0.10896358488749999,2.012631722561578,4.817036724541708,4.062012545616824,1.1817340001187089,1.165982188236694,0.5469062751618552,1.0287268056335133,0.8701403200876656,0.42885841896218824,-0.11959252299347753,-0.16395519719243865,0.13136455512759293,1.3640872962277744,-0.3000716517687638,2.853360171120782,-0.3188801906916301,0.6497528903340575,-0.4522840709670124,8.519165,22.494034,14.9548645,2.6635437,3.1160583,1.3386993,-1.7687225,3.6277313,-10.114822,-2.6457367,-3.2361145,-1.1369629,NOT FALL
1.510321432125,9.9583530575,1.348192614725,0.007748604774999992,-0.052872083874999976,-0.025046920825000003,1.9260892483036507,4.630743454445144,3.6667902859626302,1.0985120468249834,1.0482922728002975,0.5008201237734922,0.9100284335189726,0.9580391258297737,0.8783427983755465,-0.23514594619591545,0.31585687140375657,0.6127975988945414,1.2481964688553777,-0.08324962462736707,4.555053611720704,-0.1963208501684135,1.1892401736105151,0.43531580217207066,8.519165,22.494034,14.9548645,2.0925598,3.1160583,1.3386993,-1.7687225,3.531952,-10.114822,-2.6457367,-2.8749847,-1.1369629,NOT FALL
1.0179546343750001,9.735632534999999,1.568219196025,-0.19170875910000001,-0.023790550812500023,0.010107232012500003,1.9923298801551772,4.965975264783771,2.777469846080491,1.3667805359790048,1.0720918448277592,0.5080081849524263,-0.0777413874842575,0.9278704954339166,0.6743264644079167,-0.2880976311623546,0.3222831897323702,0.45739681966847695,-0.1754102457185227,-0.26764702398744156,8.987162965526624,-0.5840407136078474,0.41204235571516756,0.1943916450011378,5.2008057,22.494034,14.9548645,2.0925598,3.1160583,1.3386993,-4.459793,3.531952,-10.114822,-3.3029938,-2.6182556,-1.1369629,NOT FALL
1.238340562,9.789112832499999,1.6261283989,0.164848513025,-0.10557632536250003,0.01928196086250001,2.092432611200466,4.489138874424111,3.1932624708892425,1.3047454253890693,1.1985654073811975,0.46925703803224944,-0.049920459079600125,0.9057846810739012,0.6094621457851431,-0.6684489554695269,0.21961403007788052,-0.24983641672037743,0.21152050568340508,0.15012179625295508,4.711311427880933,0.05053008823540095,-0.02166710516246173,-0.4022714453772478,6.3500214,22.494034,14.9548645,2.141571,3.1160583,0.98609924,-4.459793,3.531952,-10.114822,-3.3029938,-2.6289062,-1.1369629,NOT FALL
1.343086619,9.46161572125,1.3514837265000001,0.16751117340000002,-0.15034389407499998,-0.06276988933750001,1.9957671467595208,3.6964764098781724,2.1771862229514984,1.2252835775635273,1.0504275992044114,0.4333280702195956,-0.24466738230260543,1.1531646664035402,0.7720031120932095,-0.8192498380491884,0.27909468361816786,0.12490118615056772,0.6606789976062779,1.5899744733299004,2.1614559022706095,0.6571090044864536,0.21200569553492166,-0.5543250868516996,6.3500214,22.18039,9.369186,2.141571,2.6569366,0.98609924,-4.459793,3.531952,-3.6002045,-3.3029938,-2.6289062,-1.07518,NOT FALL
1.053986922875,10.19343372875,1.1933462142500002,-0.21395969902499995,0.18172588166250003,0.11483669371250001,2.168549208434851,4.110670566594503,2.3466161321867496,1.4903400391084538,1.3928652721644075,0.6732997943590228,-0.15442113119297693,0.8368272493961396,0.8696034243680332,-0.6914186386414336,0.38340057580935594,1.0326091386353593,-0.0052458382832787365,0.12962882129719944,1.6590457335265336,-0.16666265984220363,-0.40688102591791653,1.4592332452496164,6.3500214,22.18039,9.369186,2.141571,3.5634766,2.2963715,-4.459793,3.6492767,-3.6983643,-3.8388214,-2.6289062,-1.07518,NOT FALL
1.1197074855,9.9755614775,1.561305236375,0.023807332787499996,0.0611648565875,0.10231952817500001,1.958028480210875,4.1640277284685485,3.1151583817962303,1.2702411351072989,1.3216421842261696,0.6790275659606594,0.02539241326911832,1.3059451350452196,0.4429719103319727,-1.1455744030247472,0.6192362315099116,1.040989498131453,0.07566303593855617,3.2726898173739603,-0.11843022093451872,1.4292745031654182,0.018396158866983647,1.3998065210416533,6.3500214,27.430878,9.369186,2.141571,3.5634766,2.2963715,-3.6362,0.6086426,-6.116516,-3.8388214,-2.6289062,-1.07518,NOT FALL
1.1453254705,9.659497065,1.3709056897125003,0.004552458487500005,-0.002258490787499978,0.01695194326249999,1.629881574410615,3.994075605026102,2.780807670539896,1.2403934836758412,1.3390764595285154,0.6514556418803706,-0.6297157334448952,1.5840730124152844,0.293649097653792,-1.228484476018983,-0.1418861022830737,1.548326410948597,0.10231992817439073,4.662044716087718,0.2715811476307759,1.7231686319902177,2.9642330683540807,2.7596949077795783,3.9534302,27.430878,8.344467,2.1394348,3.5634766,2.2963715,-3.6362,0.6086426,-6.116516,-3.8388214,-5.3591766,-0.9377594,NOT FALL
0.8954307528750001,10.183946813750001,1.7993482634875,-0.37137890244999994,0.14035415732500006,0.117566109575,1.6193370274902432,4.58058203215445,2.742633209708215,1.257711768121414,1.3233755427947576,0.6420688541254798,-0.37884484988824474,1.1216639402487711,0.046217290870390566,-0.7911686777809533,-0.4212593565782457,1.2899021086559685,-0.09322216701064079,1.7076016940604353,0.38310089039064854,0.41200812983258484,3.3523714901103876,2.160267934227438,3.9534302,27.430878,8.344467,2.0840454,3.5634766,2.2963715,-3.6362,0.6086426,-6.116516,-3.8388214,-5.3591766,-0.9377594,NOT FALL
0.7278066637,9.31919156375,2.2279703178625,0.19784545532499997,-0.164564320825,-0.004713439937500011,1.5917651752077977,4.2534760930239965,2.64764760762188,1.0042536070975099,1.020099512639933,0.42195046036891515,-0.14245182933493086,1.6705948679295426,-0.06210926122777,-0.509183348753545,-1.860521349529185,0.06330645127696724,-0.23876036880004436,3.935284200731476,0.9955798599557473,0.49715255728819274,7.098127879162652,-0.6642764035057014,4.4442444,27.430878,8.344467,2.0840454,1.4819489,0.83695984,-2.7287903,0.6086426,-6.116516,-2.5338745,-5.3591766,-0.9377594,NOT FALL
1.046833992075,9.6645250425,1.7126779566125,0.163117595625,-0.07051505836250001,0.014394377837499995,1.6770239908371707,3.7683059251068722,2.0896952322161035,1.0406715229451848,1.189523795346564,0.35694820437019403,0.7699588589293457,1.359720217930728,0.40617188962977135,-0.07981130703361704,-1.312379380534807,0.16869771709840964,3.0127926070605655,0.9747637829159306,1.592573146547302,0.482344953474112,4.307712654270781,0.0273008397300738,7.8535767,19.915482,8.205597,2.9192047,2.6089935,0.83695984,-2.7287903,5.0402985,-3.882721,-2.5338745,-5.3591766,-0.9377594,NOT FALL
0.8629291536125001,9.88766441125,1.8845825180249995,-0.197567368575,0.04033928037500001,0.08226470832499999,1.6436437202813259,4.410154767656157,1.960633576225226,1.200917943674807,0.9476479008094599,0.40329019409302946,0.9100038076278434,1.0504589225616567,0.8654579612441532,-0.13966458328790993,-0.20188555731504365,0.4911396360801498,3.723688349166692,-0.1298772686559757,1.4728962579248321,0.21431157394176426,1.5266909806859932,-0.40150112012788686,7.8535767,20.006454,8.205597,2.9192047,2.6089935,1.0745239,-2.7287903,4.3220367,-2.5204163,-3.1101837,-3.0432892,-0.6352234,NOT FALL
0.8866918541875,9.68640227875,1.811469085925,0.17108039745,0.00774230884999999,0.05482063081249999,1.884988749138509,4.924706138945787,3.231481865824264,1.276047656434715,1.197205092679921,0.4660082129988461,0.8005876526171913,1.46403708774251,0.9103465426339391,-0.2059194840834248,0.04900314570229985,-0.4063325923989772,2.297243411736824,1.4812506914720007,4.881795425224184,0.022207711233963146,1.6929661521412038,1.3560227838102614,7.8535767,26.468414,16.427292,2.9192047,4.191986,1.0745239,-3.7415466,4.3220367,-7.057434,-3.1101837,-3.0432892,-1.5225983,NOT FALL
1.2952322019874998,9.87156425625,1.6460895557500002,-0.03293113767500001,-0.059116935424999975,0.019414327687500003,1.737374476658256,4.986896994771009,3.1698949062899366,1.2895091166170505,1.3666076158466103,0.4410588843042885,0.9264817625486488,1.356245683413791,0.886830070182932,0.008385640356140943,-0.46328317111273404,-0.27062551769486004,2.7767042248374603,1.201789064205717,5.524790080940315,0.0407527339815128,1.9189098814033283,2.0517562776671907,7.8535767,26.468414,16.427292,2.9192047,4.191986,1.0745239,-3.7415466,3.5128021,-7.057434,-3.1101837,-4.5708923,-1.5225983,NOT FALL
0.9169488927374999,9.68981416125,1.7736108842499998,-0.0804554011,-0.03444252105,0.06177215301250001,1.5927556205446032,5.627160114069837,3.072516491045549,1.5224422934847512,1.294788210705809,0.5566597332412134,0.5632266870331712,1.2599745403516283,0.869053084263762,-0.1190607911844663,-0.7603725911774357,0.11364802826790626,1.323049302496969,0.831612407005669,6.343522655274578,-0.6936370435259676,2.6620745765291174,0.34395184647864063,6.1082,26.468414,16.427292,2.5708618,4.191986,1.4281921,-3.7415466,3.2135315,-7.057434,-3.1101837,-4.5708923,-1.5225983,NOT FALL
1.1212347030749998,9.8471435125,1.7770820634625,0.21964320652499997,-0.1251901615375,0.038762662687500005,1.7105755820250883,5.414377437241907,3.6313117458423005,1.427153278132725,1.5226042281323884,0.4988654973764168,0.6098801974187767,1.264861469201756,0.8019199402362954,-0.27291263631805174,-0.24391203071645615,0.021765861496981332,0.9709440347746057,1.0943100421648353,2.858530795397237,-0.4732776447122147,0.7127028787779119,1.4775034122891642,6.1082,26.468414,16.427292,2.6731415,4.191986,1.4281921,-3.7415466,3.2135315,-7.057434,-3.0643768,-4.5708923,-1.5225983,NOT FALL
1.3122016921625002,9.99366892,1.9766687302875,-0.1334119811625,-0.0670537922875,0.080894087325,1.394158984597115,5.139793719661732,2.710484811377709,1.3492326492197528,1.4109990614145476,0.515484843519652,0.6700643437981518,1.0082161675851948,0.7272129462376982,-0.014681308883192823,-0.4139141105362939,1.021925398015621,0.7743605581617778,0.27753781489333784,1.5911296083485293,-0.3060308634285116,0.8511187530473094,0.5204449856380289,5.495285,25.668747,10.429825,2.6731415,3.4217987,1.4281921,-1.3377533,3.2135315,-4.3160706,-3.0643768,-4.5708923,-0.7715912,NOT FALL
0.8449733729125001,9.629570186250001,2.1945714899624997,0.0394138318375,-0.0005144100874999614,0.09851112208750001,1.5238162084577744,5.027826020186267,2.7667765080948534,1.3178312848328746,1.2762181099371583,0.5440800311468821,0.009187988050751387,1.2130477194663327,0.857672462956691,-0.2977561109306388,-0.04806118529272755,0.5673392774950787,1.7012224799921851,0.7262711025695054,1.1167918240415426,-0.2707645439770281,0.19378628945088838,0.16271404768899833,5.495285,25.668747,10.429825,2.6731415,3.4217987,1.4281921,-3.8564606,3.2135315,-4.2011566,-3.0643768,-3.3032227,-1.0006104,NOT FALL
1.2220895737875002,10.00438268375,1.9640094655875,0.0861526492625,-0.11754684065000001,0.053942871187500005,1.6671466494567917,4.450572745041772,3.294985445907249,1.0114620828562382,1.3971146990085712,0.4556920389432335,0.23192838093536575,1.3114512495512956,0.6664520494943552,4.080725660878834e-05,0.1703400727566282,0.6062029108532218,2.5468279922823314,0.8357221864261408,0.9314828480812603,0.3892635373492417,-0.2291990326494786,1.159216920183182,7.202362,24.466858,12.120117,2.6731415,3.4217987,1.394104,-3.8564606,5.3371887,-5.2713623,-2.508316,-2.8696594,-1.0006104,NOT FALL
1.1097118384125,9.97032526,1.9854379648749998,-0.24487876871249997,0.013254547350000001,0.0939706792375,1.5674811738161707,4.6672688791219485,2.7902406958709576,1.066776689591095,1.1565993607841347,0.5488495498797781,0.0779819718235139,1.3650681230609918,0.7261532538739763,-0.1770736368875306,-0.22076060846640289,0.7941994076047048,2.9596614219548396,0.7538131568048172,2.1283493194383016,0.4037611786953934,0.4077008932055053,0.3554476204293415,7.202362,24.466858,12.120117,2.5165405,2.6729126,1.4676056,-3.8564606,5.3371887,-5.2713623,-3.1400146,-2.8696594,-1.0006104,NOT FALL
0.8772054676250001,9.2160016925,1.8360698769,0.1645822511375,-0.12985019569999995,0.0704683300125,1.7368515662081285,4.261981794341769,2.914773252144237,1.143075025991654,1.1744449847242149,0.4567809930030928,0.21965786108070756,1.5025112585898894,0.6684467667203381,-0.15923139051981275,-0.23637426104070358,0.6379492696814132,1.4484986058868232,1.8222136693805915,1.8132784654757952,0.43401879992129055,-0.1884179034816822,1.4472201822299287,7.202362,24.466858,12.120117,2.619873,2.5898285,1.4676056,-3.8564606,3.8216553,-5.2713623,-3.1400146,-2.8696594,-1.0006104,NOT FALL
1.4223056771500002,9.9529071875,1.7200706506499999,0.024819372375000016,-0.08140716465000002,0.05394306229999999,1.6067843157390072,4.57700909245456,3.30773244709526,1.1043609208126726,1.1253861721796277,0.43282090689985786,0.5952175320062383,1.179356876940829,0.5280803716803789,0.13362343402935126,-0.3051172224347604,1.2947952899798971,1.7215171389272985,0.6889665339630993,1.3667992050390936,0.8695529345494672,0.030481092275486787,1.9078202405414908,7.202362,24.466858,12.120117,2.619873,2.5898285,1.4676056,-2.0608063,3.8216553,-6.3080444,-3.1400146,-2.8696594,-0.6693115,NOT FALL
1.2645576451,9.77549686625,2.0079736810999997,-0.20270786435,0.11175136588749998,0.11298560983750001,1.538229495157603,4.6110576100382605,2.7902405339720384,1.1850375048225705,0.8568973082860423,0.467139666450916,0.27708246892065463,1.0004595919377783,0.4638122388270685,-0.003103421400053738,-0.41270064798944206,1.2128314317129245,0.48286572777369896,-0.1079304656973119,1.9888076863691024,0.3718844112381219,-0.2896908557091775,0.9019298521962913,6.3572083,21.581848,11.064285,2.619873,1.5437317,1.4676056,-2.0608063,3.8216553,-6.3080444,-3.1400146,-2.022766,-0.6693115,NOT FALL
1.1924623462875001,9.59551259875,1.8496866250500001,0.15970840237500003,-0.06553535403750002,0.06580734285,1.8608488759748152,4.644723514267345,3.392464007748445,1.1788433651779606,1.0274322301721175,0.419775398094111,0.5422824562880727,1.0817377037144371,0.31925426049329186,-0.11184751286425497,-0.09750791880349541,0.5865529653042939,0.6313571443817461,0.315598222750455,1.2847729687950267,-0.01683256787477072,0.04279773249271068,-0.09826307388622535,7.3077087,24.011963,11.588608,2.619873,2.871048,1.2332458,-2.0608063,3.8216553,-7.2848816,-2.733078,-2.8909607,-0.6693115,NOT FALL
1.4742593751625002,9.658599491250001,1.7572710024875,0.053195761462500005,-0.008703231437500014,0.024315071450000003,1.720765877432825,4.41750149075424,3.736013922306616,1.1563449031934572,1.0052034151351577,0.4201233089782068,0.571386669439198,1.2414365211027687,0.7593884718504726,0.008966863456963618,0.1376612759967618,0.8204410431589721,1.0394859225109254,0.7410126133742323,2.29182190226906,-0.027948453241713356,1.1536863122369692,0.15502508043179875,7.3077087,24.011963,15.735367,2.7935028,3.0500183,1.2332458,-2.0368652,4.7745514,-7.2848816,-2.733078,-2.8909607,-0.6693115,NOT FALL
1.1763605115125,9.766039075,1.7698703768625001,-0.126900484775,0.128662682625,0.08904285441250001,1.680741186258617,4.826046538667754,3.208737880684463,1.389524004245858,1.088312522926757,0.437616228177413,0.5685466519405604,0.949368924843836,1.0223308396965887,-0.05871111714711765,0.1502702434185808,0.5605190792050625,1.0535807732330023,-0.2368852680575655,4.771437837813676,-0.6406356230549828,0.4606483826830914,-0.40203064734046157,7.3077087,24.011963,15.735367,2.7935028,3.0500183,1.2332458,-2.0368652,4.128113,-7.2848816,-3.065445,-2.8909607,-0.6512146,NOT FALL
1.1819274865625,9.8638725175,1.7976730294124998,0.18796539065,-0.03585414661249997,0.056858254275,2.041478815428018,4.916722152182185,3.849936312566165,1.3440365287755702,1.226600286647255,0.43867962921796755,0.6616935221811552,1.1636700736836296,0.6796951337741924,-0.2150307893815806,0.2095964437168495,0.034653408410425156,2.0758393865650255,0.4616401727779298,1.9233839613495185,-0.43961575274494047,-0.08555313513830054,-0.8009691862751422,8.610153,24.011963,15.735367,2.7935028,3.0500183,0.9466858,-4.505295,4.128113,-7.2848816,-3.065445,-2.8909607,-0.94628906,NOT FALL
1.316212074875,9.40325754125,1.5883302755875,0.11352996643749999,0.027369501250000004,0.010133362212500002,1.8202034844494994,4.304740804557022,3.3129783423011787,1.2258594659963853,1.0969378125519567,0.3927412836135317,0.4517714974034725,1.5208168825066677,1.0184261737170432,-0.08734566698194846,0.2076285773344071,0.2756923121418644,2.8335825615910277,1.7145030469570592,4.0026776709187635,0.0819787698812422,0.09924765430824722,-0.2889044512226091,8.610153,23.698318,15.735367,2.7935028,3.0500183,0.9466858,-4.505295,4.128113,-6.9209595,-3.065445,-2.6012115,-0.94628906,NOT FALL
1.0776603615,10.08572481875,1.7265949373249998,-0.2047845878375,0.279876519075,0.1263801564125,1.831216502604839,4.827337673884515,2.743737974497117,1.2758029217334428,1.117258059505711,0.49432801972119017,0.5980603770703267,1.0393811188463868,0.3926356939775008,-0.15659455785038975,-0.1636781074154354,0.3824813533257362,3.136313506479106,0.11133504466829258,2.6100078589193902,-0.20829289089708114,-0.5127119997794858,-0.15902149537641286,8.610153,23.698318,11.239059,2.4856415,2.4524078,1.4622803,-4.505295,3.7641907,-6.9209595,-3.065445,-2.6012115,-0.94628906,NOT FALL
1.16070917925,10.04170149125,1.95999949045,0.1011461239625,-0.10356540569999999,0.07751121412499999,2.199919992145127,4.705470461188432,3.1641592637190246,1.1155477267846372,1.1439751947366898,0.5103234776701561,0.09420748132144062,1.4779451767400258,0.31239781681711815,-0.2923788199520018,0.04342083314882831,0.2639972116622705,1.2035152333797718,1.4063233443533525,0.9076902637476558,0.2507306132057261,-0.512356674495118,0.009043290927161163,8.610153,24.852325,11.239059,2.4856415,2.2233734,1.4622803,-4.9745483,3.7641907,-6.9209595,-2.875824,-2.6012115,-1.0709229,NOT FALL
1.2643176961625,9.50297603625,1.6114340078250002,0.027788921675000012,-0.017411424525000017,0.0135555257875,1.8749643296903136,4.029630760909751,2.5822554068412344,1.1351956892726514,1.2415698391443406,0.46171909161366154,-0.2860936837042066,1.7206107189527404,0.31566300709510114,-0.008649830711275248,-0.26355741858844345,0.8369836062265,0.7530055995305807,2.784927143074026,1.0073229993081583,0.5735401071916697,0.7009910952405449,1.130636080700743,5.610214,24.852325,9.429047,3.4454498,3.1831818,1.4622803,-4.9745483,3.7641907,-4.9241943,-2.875824,-4.1490326,-1.0709229,NOT FALL
1.198477362575,10.1867006525,2.0077642582,-0.2438930526375,0.1005533220625,0.14863052088749998,1.7835993591096697,4.653431178049465,2.6250353672034366,1.2323462424104354,1.3312015883119765,0.5618929141863643,-0.33526827412631527,1.3339697339015077,0.3452107762111668,0.15397461291160766,-0.2619212790524774,0.6635912295489558,1.354935946085626,1.0227702020413938,0.6323688447586031,0.11824746793622198,0.217492011175493,0.104858723874373,5.610214,24.852325,9.429047,3.4454498,3.1831818,1.6369781,-4.9745483,3.7641907,-4.9241943,-2.875824,-4.1490326,-1.0709229,NOT FALL
1.15675792585,9.434263237500002,2.2016042868750003,0.1961679446125,-0.24806766355000004,0.021118925325,1.872095675792917,4.162047097538164,2.6046916443735944,1.1301906502453092,1.232135852926245,0.4903809652541096,-0.3693520102507489,1.9580907186654535,0.10999003906563413,-0.16759879810850775,0.12066287582418218,1.0193180770295227,0.7660711118584378,3.420223118993847,0.5192061596538617,0.15418433721600344,0.8218701346739117,1.5718636473243581,5.610214,24.852325,9.429047,3.4454498,3.1831818,1.6369781,-4.9745483,5.0283356,-4.9241943,-2.635086,-4.1490326,-1.0709229,NOT FALL
1.356524467225,9.7344366775,1.4779268283750002,0.1823194498125,-0.07967605283750005,0.005553243949999997,1.5536072472591351,3.836037991719067,2.4809709700035465,1.106372208231504,1.3980740890262777,0.48279696079001416,0.07901401549573404,1.754890895097125,-0.056451335979457756,-0.10891355614284887,0.04604567397929666,1.0561771969594995,0.41862364846247546,2.8504707572498615,0.5768373570505032,0.2373371332667742,0.20008226322781475,1.917685076073674,5.610214,22.532349,8.193634,3.4454498,3.1831818,1.6369781,-2.6066895,5.0283356,-5.043915,-2.635086,-4.1490326,-1.0197906,NOT FALL
0.973991011475,10.13750081875,0.9673036597500001,-0.07994842477500001,-0.3363653133000001,-0.0371770874375,1.7343377922078183,3.716965742851024,2.5093240361826896,1.1666575908933647,1.2767096983650676,0.5919282016273468,-0.5622359741124271,1.6535893813764955,0.3649899214664589,-0.5484034520675414,0.45439002126364825,0.1764275985549197,0.3404865022016037,2.8029462992343506,0.2537519909474688,-0.3377006709798356,0.11791122277353816,1.1781813488016981,5.0978546,22.532349,8.193634,1.9689941,3.076645,1.6369781,-4.122223,5.0283356,-5.043915,-2.95253,-2.9868317,-1.8304596,NOT FALL
0.4203914554375,9.7409613,0.414781958575,0.3514570226875,-0.5288055392000001,-0.1800552368,1.980770893906387,2.9902484203550763,2.331352350954007,1.0669698322112273,1.480958231814042,0.45004730637320606,-0.06948288097571742,1.6378098713212519,0.6154860108393526,-0.9754354035219951,0.492911402905583,-0.7731186503172054,-0.6015407003698598,3.8873680777549744,0.6415461375107236,0.9811076946532262,1.0453409908578921,1.9941729680061382,5.0978546,22.326447,6.931885,2.2289124,3.8851776,0.915802,-4.122223,5.0283356,-5.043915,-2.95253,-4.3833923,-1.8304596,NOT FALL
0.28529929303749996,10.56872696125,-0.5597770728,0.0600137709125,-0.4293626749625,0.0653148653625,1.9541826449374653,2.6722059809630836,2.2515288714583486,1.1176282595035578,1.711613713728837,0.9134701768045917,-0.00412158247657944,1.835202703775557,0.4728930407359689,-0.4901201122410515,-0.009621804419539687,1.8544875004925756,-0.42633030607351063,4.543474449261456,0.7249695109441898,-0.04653349580940169,0.7249909599807496,5.078614758270183,5.0978546,22.326447,6.754715,2.2289124,3.8851776,3.6492615,-4.122223,6.4672546,-5.043915,-2.95253,-5.735214,-1.8304596,NOT FALL
-0.2697670178375,10.68379802375,-0.291686057175,-0.28902358823749996,-0.254401394525,0.1419754029125,2.781155803451656,2.252103336204434,2.2083406650375923,1.2702356088041185,1.734987613885612,1.0165467791142897,-0.7099201627265894,0.8223583761046556,0.39404553838007017,-0.46018158061055375,-0.2368356664775953,1.279246947591158,1.8814006208999148,0.46373228261766286,0.5320510931822997,-0.32852323583872023,0.9262052428469509,3.0015441451027405,5.3300934,17.540436,6.754715,2.2289124,4.047104,3.6492615,-9.988007,6.4672546,-4.7709656,-3.4457703,-5.735214,-2.3076935,NOT FALL
0.253635390875,8.287829972374999,2.3705759155750004,-0.09204960649999996,-0.02954693021249999,0.21684097630000002,2.8242937658784424,4.834089086959892,4.590267285742284,1.1067060317910091,1.6222597678938706,0.9350585626108072,-1.067906170172378,-0.47404066796918193,0.520237947777104,-0.7449505299146382,-0.5616241423222612,1.634921085194375,2.2151934863951537,-0.8607057014477713,-1.0557824984582371,0.9082062015112267,2.1480680251815594,4.386966937172419,5.3300934,17.540436,9.476929,2.2289124,4.047104,3.6492615,-9.988007,0.74031067,-4.7709656,-3.4457703,-5.735214,-2.3076935,NOT FALL
1.0161285271250002,6.07852020675,4.66990719325,-0.2787697116375,0.094055362725,0.25969478746249997,2.7171223969971106,5.565984127115813,5.1201643806578305,0.9262830695510192,1.2338252478749547,0.908786190083361,-1.8923652327157807,0.2663813366842541,-0.3579993529888771,-1.3405223024496216,-1.179476751062884,1.6964114794402938,4.658803126359366,-1.5567451060488329,-1.4768726422918916,2.2631005782219065,7.236276487873846,4.881517823159365,5.3300934,17.540436,9.493683,1.4576721,4.047104,3.6492615,-9.988007,0.70680237,-4.7709656,-3.4457703,-5.735214,-2.3076935,NOT FALL
1.5529079299999997,3.524505044,7.337736533374999,-0.2126364224375,0.1208246119,0.05336990283749998,2.5737690723312583,4.967355968709616,3.7475460196940187,0.8035643261341694,0.8264855375690223,0.5103498098817585,-2.702237145030647,1.3999657393484226,-1.2628616898875435,-2.2860476669136323,0.06089411818958097,1.0469113397392693,8.31622174103853,0.35929606237572065,-0.2897580779261788,5.939088283669275,12.064492612911772,15.827972791151641,5.3300934,17.540436,9.493683,1.2595215,4.047104,2.8545837,-9.988007,0.70680237,-0.68167114,-3.4457703,-3.6628876,-2.3076935,NOT FALL
2.1789922675,0.755161859,9.460346050000002,-0.00011871212500000003,0.0009290496125000001,0.0005078216374999999,0.01801809509239096,0.013045049158345728,0.010069652906009285,0.0011010287892831115,0.001855360961283063,0.0011569159366948863,0.8838658269386204,-0.6881259511434052,1.0884773650442392,0.29875067537033134,-0.07636151170225325,0.6350384907596698,1.0201873092493772,1.4985632168701075,1.889498445125854,1.5396514345818693,-0.19347211997471758,0.8671008832298908,2.2439728,0.7810211,9.493683,0.00302124,0.005508423,0.003952026,2.143402,0.70680237,9.438614,-0.003372192,-0.003005981,-0.002441406,NOT FALL
2.17896289,0.756568528875,9.4593584,0.00010768428750000004,0.0003837387875,0.0003474396625,0.018181768855405657,0.013046154296064991,0.009977878916132452,0.0010180859616277277,0.001677493762272104,0.001046099179578793,0.8735869134370261,-0.9241202218834909,1.2447299987030622,1.2502752942954478,-0.4064444944653464,0.9649269827100632,0.8850236952511858,1.8500328677238898,2.526984090710415,2.6204829772504388,-0.5622641779805155,1.0541678771480445,2.2439728,0.7810211,9.493683,0.004089356,0.003372192,0.003952026,2.143402,0.70680237,9.438614,-0.001235962,-0.003005981,-0.00138855,NOT FALL
2.17836493375,0.7574365624999999,9.45986669375,0.00028010596250000006,2.3621537500000037e-05,0.0001738929875,0.01792604080962205,0.010767823958193288,0.008975646570544914,0.0009460787890463649,0.0014796965242992392,0.0010124371459958948,0.7883092836551403,-0.12180190205145074,1.2522881622613404,1.297181279500896,-0.23237448524231258,1.33997782314103,0.9190051288145722,0.14194806756850298,2.987830272011533,3.0693116551369624,-0.23860621008523664,2.264578317878832,2.2439728,0.7810211,9.4960785,0.004089356,0.003372192,0.003952026,2.143402,0.72595215,9.443405,-0.001235962,-0.003005981,-0.00138855,NOT FALL
2.17291850125,0.755820465375,9.45968681875,0.0005854837375,-0.0006160965374999999,-2.544123750000001e-05,0.01644317424168376,0.011674029206888148,0.009741379229620033,0.001104028764972099,0.0017870109830400594,0.0011917781179757857,1.3558478735994002,-0.3003823868927405,1.1946839663718454,1.141614433869784,-0.4409951113137876,0.36784033400548466,3.6704979651380594,0.2469619432271477,2.279862585820962,1.3969428352174607,-0.2566280110133712,2.0283119333214508,2.2439728,0.7786255,9.4960785,0.004089356,0.003372192,0.003952026,2.1410217,0.7235565,9.443405,-0.001235962,-0.005142212,-0.003509522,NOT FALL
2.1705842925,0.754892539375,9.46010566875,0.000532270625,-0.000749610725,-7.86656875e-05,0.011905063611713422,0.009458365052890001,0.008588864832205579,0.0011262824860312284,0.0018327677460017947,0.00122683614560107,0.4015832472435202,-0.260201489103609,1.0763914001782784,1.0927379008387053,-0.10158991718775173,0.35186646504809227,-0.08252640437886027,1.149586308350985,3.178169665045947,1.3940389905832067,-0.20168313147648664,1.7325110103072845,2.2032623,0.77622986,9.4960785,0.004089356,0.003372192,0.003952026,2.1410217,0.7235565,9.443405,-0.001235962,-0.005142212,-0.003509522,NOT FALL
2.1701351162500004,0.753456114375,9.460195487500002,0.00046607820000000016,-0.00037653344999999996,-3.8430387499999986e-05,0.011577497451397259,0.010926277387584693,0.009071791119651793,0.001096346224473289,0.0020284573425072,0.0013244708167635998,0.300701030379455,-0.3830897189248164,1.69721138480542,0.9327712941133134,-0.030090464422396178,0.4426689967530744,-0.0015648669885579558,0.7024139711476538,4.755564903298512,1.4078481038843975,-0.08032556648136424,1.576656101371027,2.2032623,0.77622986,9.4960785,0.004089356,0.004440308,0.003952026,2.1410217,0.7235565,9.443405,-0.002304077,-0.005142212,-0.003509522,NOT FALL
2.1677408275000003,0.75330657925,9.460285531250001,0.00037356665000000004,-9.690739999999996e-05,0.00017516373750000002,0.010742830837830545,0.01030402031021991,0.008334152011956487,0.0011269200413409784,0.0023509532917128035,0.0013894010616185013,0.09966788885747689,-0.5076657117911302,1.2970410830302657,1.0096994612625787,0.09051496458069658,0.09093058244230594,-0.23258862265502245,1.268145244224132,3.659118961382897,1.3723480445258716,-0.5436272953979508,0.7743251939752658,2.1960754,0.77622986,9.4960785,0.004089356,0.005508423,0.003952026,2.1410217,0.7235565,9.443405,-0.002304077,-0.005142212,-0.003509522,NOT FALL
2.1674112387499997,0.753365897375,9.461751543750001,0.0001345645,0.0007425089875,0.0003611433125,0.011222875859238257,0.01099074518225444,0.008351708201467554,0.0009225251984121355,0.0017838798555502586,0.0011474836303075916,0.2182114257833315,-0.6768761811369586,1.5698080262391034,1.2439048234950607,0.2727217944532329,0.4015562185595185,-0.3052638963697025,0.9045531878608482,4.138003085627852,4.133911735359253,-0.40665818612648374,1.3883060872646533,2.1960754,0.7738342,9.4960785,0.004089356,0.005508423,0.003952026,2.143402,0.7211609,9.445801,-0.002304077,-0.003005981,-0.002441406,NOT FALL
2.1698650425,0.7546230295,9.46073395625,0.00020131619999999998,0.000756052125,0.0005345104375,0.0121602027014229,0.011765848986063632,0.009218778259683409,0.000920973540971528,0.0018761012832719372,0.001162164588574977,-0.04784263239871573,-0.63246281282909,1.2457139008818738,1.3335880914556126,0.07287026014713213,0.46341357095404234,-0.5941845371342391,0.6861754875314179,2.8410390596574917,3.949512510879851,-0.4572055225387226,0.8867757365572873,2.1960754,0.7810211,9.4960785,0.004089356,0.005508423,0.003952026,2.143402,0.7211609,9.445801,-0.002304077,-0.003005981,-0.002441406,NOT FALL
2.17246856875,0.757375906375,9.4603448875,0.00017480010000000003,0.0006362640375,0.00048093535000000005,0.014030369201927562,0.01156527725107155,0.009722257059183552,0.0008003245109189397,0.0017000289610754685,0.0009171985213392205,0.46877152689913015,-0.20955077080012163,1.1241047898979952,1.8425519939768673,0.11604545139096822,0.14751150646189076,0.9156433614760515,1.4739700330726704,2.8302666205988363,6.017855890740746,0.02699539044266741,0.05847618584047165,2.222412,0.792984,9.498474,0.004089356,0.005508423,0.002883911,2.143402,0.7211609,9.443405,-0.001235962,-0.003005981,-0.00138855,NOT FALL
2.17558097625,0.7589324922499999,9.458759474999999,0.00036020935,0.0002103517875,0.00037412558750000004,0.013558564480211763,0.01371205835781995,0.009765600603617561,0.0009341871664240937,0.001625054593650454,0.0009861382591327481,0.25346921369570696,-0.2531665084405202,1.4210470443957188,1.2752490606220348,-0.2307859999788615,0.3653851078430097,0.8232143836832249,0.5639233578879139,3.511566155917796,2.3521126654492255,-0.5407526266906082,0.0776809750704679,2.222412,0.792984,9.498474,0.004089356,0.003372192,0.002883911,2.143402,0.7211609,9.443405,-0.001235962,-0.003005981,-0.00138855,NOT FALL
2.1764196399999998,0.7591428735,9.45771195,0.00026731380000000004,0.00011688931250000002,0.0003340875625,0.011980330259852979,0.011746624393037041,0.00824007378744272,0.000780328845055458,0.0015474898321128203,0.0009477000344564444,0.6942669249597901,0.34929556504024345,1.458098485659215,1.0614392342207373,-0.1833164745319781,0.5161766518306964,1.6127253238586965,0.8663072320486891,5.9160122567678,1.251776634357494,-0.28696018308798044,0.41203776416898297,2.222412,0.792984,9.498474,0.00302124,0.003372192,0.002883911,2.150589,0.7283478,9.443405,-0.001235962,-0.003005981,-0.00138855,NOT FALL
2.17492313375,0.7592327111249999,9.45857963125,0.000492777375,-0.0005760443500000001,0.00010728782500000003,0.012856061756161354,0.012604745879970571,0.009247787922911544,0.0009983430705669065,0.0018238179540654208,0.001048595254364521,0.6167397399958843,0.15122584587242774,1.8699501809703254,1.1815155770270431,-0.7918788958700917,-0.07073960578224682,1.2639650245600853,0.5142430834439358,6.071862606877151,1.5488601550747934,0.6971844265639868,1.1560533231808217,2.222412,0.792984,9.498474,0.004089356,0.003372192,0.002883911,2.1457977,0.7283478,9.443405,-0.001235962,-0.006210327,-0.003509522,NOT FALL
2.17070332,0.75737800625,9.458938943749999,0.0005454294125,-0.0008955185250000001,-0.00015937805000000002,0.011757384566043966,0.01123332637940955,0.007820771064924579,0.001018042662651776,0.001894398463909573,0.0011452162185280003,0.028222824459269477,0.2582005338908933,1.6569501990976867,0.9538745564211597,-0.32433423949866586,-0.11072693970518695,-0.5613855427880114,1.2620912598590275,5.674184792960169,1.1400642973358508,0.035552980719419036,1.0909772644766953,2.1960754,0.788208,9.4960785,0.004089356,0.003372192,0.002883911,2.1457977,0.7283478,9.445801,-0.001235962,-0.006210327,-0.003509522,NOT FALL
2.1673214012500006,0.75633010975,9.460644318750001,0.0005191003375000002,-0.0008556651375,-0.00022594851250000002,0.010810105754356538,0.010678386287101275,0.009126248361951585,0.000965553034964871,0.0017339340578088368,0.0011827999004695277,0.20100272769228442,-0.4552933576086492,1.7665000321391864,1.2592304900111664,-0.7486598471889319,0.05557349114544657,-0.4300669211629162,1.1892361750391238,4.631713313434604,1.8616174533853727,0.6493506327456049,1.1256287747450529,2.1960754,0.7858124,9.4960785,0.004089356,0.002319336,0.002883911,2.1457977,0.7211609,9.445801,-0.001235962,-0.006210327,-0.003509522,NOT FALL
2.16756020125,0.7569883351250001,9.46028573125,0.00031922590000000006,-0.0005096632375,-0.00011915693750000004,0.010814668171625633,0.011738298274808195,0.009308753208990968,0.0012228457477608287,0.0022600758766925908,0.0012743954267954898,0.15756900652524072,-0.33842025012833066,1.7475718819150399,0.31450203082850564,0.22151808547080581,0.08246904631360029,-0.47077817047089443,0.7922101625835452,4.356837748841599,0.6864242182471871,0.4902225163259888,0.45572488973040404,2.1960754,0.7858124,9.4960785,0.004089356,0.005508423,0.002883911,2.1457977,0.7211609,9.445801,-0.002304077,-0.006210327,-0.003509522,NOT FALL
2.168218805,0.75788612375,9.460256162499999,4.0360150000000024e-05,0.00043656488749999994,6.759502499999997e-05,0.011773208192957635,0.011043128918073146,0.008822642868556737,0.0009990880579659519,0.001885308477305332,0.0011593869050691293,0.9840201832978456,-0.3061778624442463,1.4701632532236446,-0.05439429811023869,0.2874279397597872,-0.105719393800522,2.566213298907842,1.3921572946884329,3.3334312149626397,0.658994772428612,0.08216758333810548,0.5143335267928046,2.217636,0.7858124,9.493683,0.00302124,0.005508423,0.002883911,2.1481934,0.7211609,9.445801,-0.002304077,-0.003005981,-0.003509522,NOT FALL
2.17157096875,0.76010036375,9.459388731249998,5.390663750000001e-05,0.000742696725,0.00045441698750000003,0.012085248926797002,0.013183405428628961,0.009159978765308337,0.0011358693522699281,0.00176741477307932,0.001093581036144927,0.8073748148719988,-0.37697974139109575,1.4089491912110308,0.3651332538395009,0.26555279781631885,0.43267710778320984,1.4722963701318212,0.5339514134170948,3.183613559421681,0.5025878775049764,0.06951818793256903,0.7634858302193361,2.217636,0.79060364,9.493683,0.00302124,0.005508423,0.003952026,2.1481934,0.7211609,9.4410095,-0.002304077,-0.003005981,-0.002441406,NOT FALL
2.17567081625,0.761177633125,9.457743081250001,5.005125000000135e-07,0.0009027284499999999,0.0004942911125,0.011934192904868376,0.011402168828522782,0.007235107492050463,0.0010549927616430716,0.0016666286797254579,0.0009588897070457971,0.7922398600120396,0.011381152194046808,0.9595401382624792,0.20204750993941092,0.2286917217727298,0.587206006224029,1.0676348737941375,0.6189948434203583,2.4553878942075906,0.7016683311709242,0.3122143744892938,1.064108118816308,2.217636,0.79060364,9.486496,0.00302124,0.005508423,0.003952026,2.1529846,0.7283478,9.4410095,-0.002304077,-0.003005981,-0.00138855,NOT FALL
2.1773469937499996,0.76246433,9.458431425,0.00041268008750000004,0.00015733408750000008,0.00036077126250000005,0.013290897243991318,0.012298657943728055,0.008737479422043067,0.0010870448954229098,0.0017754535289516322,0.0010025562371724682,0.4769084724402413,-0.13966478399089885,1.77338514815363,0.7807362287189885,-0.785194655816064,0.5052902237111109,0.3378272391948749,-0.03240805202986774,4.974038790065948,0.3810048342818657,0.35937922448400483,1.0667809975556226,2.217636,0.79060364,9.4960785,0.00302124,0.003372192,0.003952026,2.1481934,0.7283478,9.4410095,-0.001235962,-0.005142212,-0.00138855,NOT FALL
2.1749521300000003,0.761207389,9.4581024,0.000584733825,-0.0004162052874999999,0.0001877667625,0.013057073746607606,0.012018543068972801,0.007725838582073197,0.001077846775525037,0.0017173745451150005,0.0011185800545833683,0.2829522410960419,0.004179352320986336,1.9553635790472668,0.5338673698294559,-0.40323048369602554,0.1380799898911693,0.05046699081216888,-0.010518604559861977,7.463678078706305,0.01908777453255528,-0.24263664100268612,1.0453663934837474,2.2080536,0.79060364,9.4960785,0.00302124,0.003372192,0.003952026,2.1457977,0.7283478,9.4410095,-0.001235962,-0.005142212,-0.002441406,NOT FALL
2.1712108700000003,0.758963013125,9.45974769375,0.0007966491125000001,-0.0010425755874999998,-0.00019888331250000007,0.013771417235395553,0.011189063614840566,0.00889025689571658,0.0009963264667520128,0.0016937840850237943,0.0011918434155280381,0.46004169472253376,-0.02947335593931107,1.5322206864707701,0.45949741964198526,-0.5512473980594089,-0.16076436921670728,0.10563207555190468,0.03297913590317458,3.824972240837816,0.026888459149445598,-0.026292931660093277,0.012518566018820732,2.2080536,0.7858124,9.4960785,0.00302124,0.001251221,0.002883911,2.1457977,0.7283478,9.443405,-0.001235962,-0.006210327,-0.003509522,NOT FALL
2.16744042,0.759023287625,9.460794443749998,0.0007838667750000002,-0.0012291090375,-0.0002522945125,0.012327158797441925,0.011230138019368601,0.008776445310814101,0.0010568722790042675,0.0019033810371623663,0.0011841032964793232,0.7135087287930966,0.0556023454616372,1.3490251650394893,0.3624077088269687,-0.05453609809837222,-0.11543444627504568,0.9247721870947108,0.20290434406995006,3.3926760702719365,-0.3505841820698339,-0.0384583266840437,-0.020260934986662704,2.2080536,0.7858124,9.4960785,0.00302124,0.003372192,0.002883911,2.1457977,0.7283478,9.443405,-0.001235962,-0.006210327,-0.003509522,NOT FALL
2.16459789625,0.7575571082500001,9.4609434125,0.0004914625750000001,-0.0006429877500000001,-0.00013212388750000003,0.008523952942171885,0.008865317847014111,0.0069758251674868505,0.0009982013098670125,0.00194255567092934,0.0011891663255318616,-0.07365731560328855,-0.005129980202165298,0.6081797116233169,0.09023804867680446,-0.24633998419834238,-0.3408017677987967,-0.6354095427440365,1.3124303534159107,2.1722461108634272,0.185568389456638,0.004097446222491641,0.011988287116944552,2.1841125,0.78341675,9.488892,0.00302124,0.003372192,0.002883911,2.1457977,0.7283478,9.443405,-0.002304077,-0.006210327,-0.003509522,NOT FALL
2.16675301,0.7591430665000001,9.460943037500002,0.00025266146250000005,7.58941875e-05,0.00030787571249999996,0.011682685306080094,0.012405093540216764,0.008545667439474451,0.0011342110911692644,0.00240299980095612,0.0013779052234903367,0.6985585637034687,-0.1544100752562164,0.8516933777315582,0.074483332222865,-0.07178093146657262,0.10782346905023915,0.5906585561411313,0.818861682643123,2.5848119100549223,-0.06951435550089391,-0.2140884516416306,0.39874976883278146,2.2032623,0.788208,9.493683,0.00302124,0.005508423,0.003952026,2.1457977,0.7235565,9.443405,-0.002304077,-0.006210327,-0.003509522,NOT FALL
2.170643425,0.7622852315,9.45947725,-0.00010480139999999999,0.0008758262750000001,0.00060107225,0.01232601621818154,0.011969895091902548,0.007349990687919299,0.000909774621605038,0.0019208477061251432,0.0010779378478770528,0.5353130057687103,-0.3012294160227517,1.0913531114305823,0.1064708672941884,-0.4183817243601264,0.49593698192757657,0.015386650938035817,1.0119296079978541,4.406241982594169,0.5504491782617147,1.15941251821193,1.19506192793615,2.2032623,0.788208,9.493683,0.001953125,0.005508423,0.003952026,2.1457977,0.7235565,9.443405,-0.002304077,-0.005142212,-0.00138855,NOT FALL
2.173126985,0.76381129975,9.45819074375,1.4435500000000258e-06,0.0008361489999999999,0.000721417975,0.013381411755772408,0.013770060702510264,0.00883400698578863,0.0010819136146782457,0.0018717544328844863,0.0011319721408046663,0.6988901185096598,-0.44032251161739216,1.2073430032010395,0.8070830697539938,-0.36904485037005574,0.3049128066816833,0.34793090380776404,0.25793441004311335,3.990127638491596,2.1032324576761123,1.2164488187555547,0.9931030216482775,2.2104492,0.79060364,9.493683,0.004089356,0.005508423,0.003952026,2.1457977,0.7235565,9.438614,-0.002304077,-0.005142212,-0.002441406,NOT FALL
2.17465286375,0.764079855875,9.45771239375,8.116856250000001e-05,0.00055615755,0.0005478618749999999,0.013611396897804414,0.01376838072546257,0.008754208166538394,0.0010389102733221098,0.0019652138446306926,0.001182760816452077,0.3804718944122314,-0.5284697935490063,1.3649263950915713,0.8750177568239752,-0.13925119154371843,0.48783512427800274,-0.009029363325769868,0.31301260374051676,4.502536114814016,2.3577576943465735,0.5528652301401502,0.7776297521083659,2.2104492,0.79060364,9.493683,0.004089356,0.005508423,0.003952026,2.1457977,0.7235565,9.438614,-0.002304077,-0.005142212,-0.002441406,NOT FALL
2.17177982375,0.7629426956250001,9.45887968125,0.00038616017500000004,-0.00020315851249999998,9.395812500000003e-05,0.013586096189756272,0.012041348768352417,0.008213790496112233,0.000978311187045484,0.0015479579991485152,0.0009472440987237711,0.33480392484658206,-0.27106289252648347,0.9379565318564269,1.0872761438130323,-0.5996693509690013,0.34576320592773635,0.7366149958348185,-0.016757124737923235,2.8317961846923634,2.014809821103581,0.12612311385420227,0.8397542696923082,2.2104492,0.79060364,9.491287,0.004089356,0.002319336,0.002883911,2.1338348,0.73313904,9.438614,-0.001235962,-0.005142212,-0.002441406,NOT FALL
2.16953545,0.760518837375,9.459358231249999,0.0007840554875000001,-0.0010688972375,-0.00014583008749999995,0.012804750562847722,0.012358349983527715,0.008108521396478444,0.0011347895248834362,0.0020343333377277387,0.0011243481207512554,0.44291469284693386,-0.04142865320724802,0.8261434009675753,0.7659485427968707,-0.618970950410199,0.44876360766621826,1.457692643823953,-0.12486661066219051,2.91846904527526,0.5676420174898662,0.0575650511420398,0.6605984280073498,2.2104492,0.79060364,9.491287,0.004089356,0.002319336,0.002883911,2.1338348,0.73313904,9.438614,-0.001235962,-0.006210327,-0.002441406,NOT FALL
2.16621437,0.757885171375,9.4611235,0.0007041314625000001,-0.00105592125,-0.0003460770875,0.01063959569420283,0.009768086076642495,0.006074116863791717,0.0009901651203717103,0.0018946765956603946,0.0009229754418115791,-0.07671936224457133,-0.2869554413256775,0.8992592625844414,0.9243465222490422,-0.7240622670319188,0.17432795600008066,0.08985732026222015,0.1777294986742124,1.6378758465750236,1.086651035429779,0.5281397557741623,1.2791154545693733,2.1889038,0.78341675,9.48172,0.004089356,0.002319336,0.002883911,2.1338348,0.73313904,9.448196,-0.001235962,-0.006210327,-0.002441406,NOT FALL
2.16411953,0.75740719,9.46148283125,0.0006245994625000001,-0.0008028219750000001,-6.573231250000004e-05,0.009494391741172772,0.010590232957769981,0.007709637991640528,0.001107830759529044,0.0020756150373045816,0.0012423813517635457,-0.1687714884125657,-0.38026806818191605,1.4201644398844346,0.5878021484573805,-0.4891705126086972,0.7719585514817076,0.23944643531455378,0.19045479222066497,4.368012930939776,0.3644343488753816,0.5558820604036914,1.4616407121733,2.1865082,0.78341675,9.4960785,0.004089356,0.004440308,0.003952026,2.1338348,0.7307434,9.443405,-0.001235962,-0.006210327,-0.002441406,NOT FALL
2.1656459812500004,0.7574672715,9.46055470625,0.00031960760000000006,-5.6097125000000004e-05,0.00026803498749999996,0.00836315349472152,0.009579778535619842,0.00691065501991917,0.0011509382558945722,0.002428952405410208,0.001272289670691422,0.06293254768962858,-0.37823457225555096,1.5783587569316078,0.7802608961665125,-0.5325317484132709,0.1754475700122158,-0.8805240944378534,0.6295489833203698,7.416765889842004,0.5957689458897497,0.41978095249557823,0.6625667892608544,2.181717,0.78341675,9.4960785,0.004089356,0.005508423,0.003952026,2.1481934,0.7307434,9.443405,-0.001235962,-0.006210327,-0.002441406,NOT FALL
2.1666040375,0.75845508775,9.46085396875,8.079630000000002e-05,0.000489775375,0.0005478575624999999,0.009838500298983229,0.011505380841536381,0.008363442080844847,0.001010976720642251,0.0017760086382118075,0.0011080729855871504,1.526183711563558,-0.17693768734239773,1.0109118954079594,1.081229106910103,0.007736032708317512,0.3163366173360107,5.017860845402227,0.8900657843662336,4.191784084522666,2.249723610369699,0.9595972766905616,1.2132600079081852,2.2128448,0.79060364,9.4960785,0.004089356,0.005508423,0.003952026,2.150589,0.72595215,9.436218,-0.001235962,-0.004074097,-0.002441406,NOT FALL
2.1711524975000005,0.7602211000000001,9.459208481249998,6.7446775e-05,0.000649988575,0.0006811769125,0.011479551528326061,0.011890187845019521,0.008710877273359003,0.0010211734084544111,0.001740768086292986,0.001031956521565773,0.8784388479220957,-0.2409350333879296,1.1361718213758103,1.0617638809978251,-0.10417084261492311,0.4572549261589288,1.0512345783839478,0.6970582465789059,4.0747833380865535,2.1321719568624626,1.186924065030512,1.2672575672181958,2.2128448,0.79060364,9.4960785,0.004089356,0.005508423,0.003952026,2.150589,0.72595215,9.436218,-0.001235962,-0.004074097,-0.00138855,NOT FALL
2.1734268225,0.7613286965,9.45956705,0.00018684032500000002,0.00047679496249999995,0.00046760276250000006,0.011855631600878254,0.010899451180308474,0.008929573578704691,0.0009182606128867879,0.0016239437186248054,0.000822842448617675,0.7517480348797686,-0.15707595448129233,1.5230967739547996,1.1540350548486618,-0.024500340742863856,0.1592187729147653,0.6415462880808613,1.1332479137088454,6.7332632285168525,3.3949805210079775,1.8890712778950638,0.09122252212352988,2.2128448,0.79060364,9.503265,0.004089356,0.005508423,0.002883911,2.150589,0.72595215,9.436218,-0.001235962,-0.004074097,-0.00138855,NOT FALL
2.1729179449999996,0.7617773033749999,9.460015662500002,0.0005057506875000001,-0.00029548871249999997,0.0002940469875,0.013101376933445746,0.011967573065811627,0.008984393396250782,0.0009966131705497322,0.0016495273193346798,0.0009214682827784483,0.3260259640447679,-0.3965176218589623,1.3966692822337563,1.2451023099132883,-1.0178835074048078,0.7015156617237016,0.30950900457600294,0.7221069031621656,6.240554070278124,1.8560439536275348,0.6225402721783659,0.7035057227959647,2.2128448,0.79060364,9.503265,0.004089356,0.002319336,0.002883911,2.143402,0.72595215,9.436218,-0.001235962,-0.005142212,-0.00138855,NOT FALL
2.1709131362500003,0.761537549,9.460164424999999,0.0005580188500000002,-0.0005096722125000001,2.7206350000000028e-05,0.012887664810878675,0.009339622531669391,0.007368237020778832,0.0008313345529596389,0.0015176929552634458,0.0009210387273513815,0.17906392896716145,-0.38875791940991156,2.098396986472467,0.93952471401732,-0.5979721333738762,0.37732893660292216,-0.46811372706099963,0.8913176476145486,12.87507439794055,1.0211384918483306,0.5509150582448785,1.1526640894116094,2.2032623,0.78341675,9.503265,0.00302124,0.002319336,0.002883911,2.143402,0.7283478,9.443405,-0.001235962,-0.005142212,-0.002441406,NOT FALL
2.166902555,0.76028041625,9.460971975,0.000836697575,-0.0013092250999999998,-0.00019904289999999998,0.012290968658601506,0.01031099664247404,0.00800179037774519,0.0009633639452338064,0.001795069661533234,0.001118132139925047,0.2978846143026248,-0.5727139815987816,2.201339255560482,1.0216660966221849,-0.8278103349689299,-0.08631765642942682,-0.06495030329557272,0.697567582002335,10.133185531098457,0.901728284514193,0.29554706049735424,0.8563501398405782,2.2032623,0.78341675,9.503265,0.004089356,0.001251221,0.002883911,2.143402,0.7283478,9.445801,-0.000168,-0.006210327,-0.003509522,NOT FALL
2.1645986650000006,0.760159681375,9.4613611,0.0005977133875,-0.001122678375,-0.00013230487499999997,0.010451284807705453,0.010221432428063318,0.006455957054534886,0.0011997899439181686,0.0020901880654778373,0.0011774758362899254,0.08443458768493566,-0.5449041633768664,0.9821266671001764,0.3521454865304063,-0.13835501684993862,-0.11868614306622562,-0.5197734579871596,0.6150874623389018,4.537233179096056,0.23324631399894802,0.3163288440917378,0.381178185522959,2.1889038,0.78341675,9.491287,0.004089356,0.004440308,0.002883911,2.143402,0.7283478,9.448196,-0.002304077,-0.006210327,-0.003509522,NOT FALL
2.164928635,0.760399245375,9.460943025,0.00034537165000000003,-0.0005235778875,5.460266249999997e-05,0.009506031502276593,0.010782932368638982,0.008194644673466638,0.001223151079370902,0.00219645761951463,0.0012629216519843476,0.35734980565728286,-0.43935583164306996,1.2658280060166724,0.4531179892142783,-0.26747615475201525,-0.10723695835564265,0.23307380928377208,0.041253803034832615,3.7537696636444142,0.14760788290942362,0.1912111828145644,0.6497126985908985,2.1912994,0.78341675,9.493683,0.004089356,0.004440308,0.003952026,2.1457977,0.7307434,9.445801,-0.002304077,-0.006210327,-0.003509522,NOT FALL
2.1677116437500006,0.761177061375,9.45995615,0.00017350901249999997,-4.312732500000001e-05,0.00028141326250000003,0.01057374081799864,0.01137589556279875,0.008821055340915863,0.001232343468277021,0.0023501590245672463,0.001178350623181941,0.17992521964647598,-0.4494611591590973,1.1823651022729664,0.7433376065802972,-0.610489915873993,-0.34420117439020764,-0.240226269588923,-0.2584461620990739,2.7117996060394773,0.41636930101375746,0.05420464408959935,1.5396156022627494,2.1912994,0.78341675,9.493683,0.004089356,0.004440308,0.003952026,2.1457977,0.7307434,9.445801,-0.002304077,-0.006210327,-0.003509522,NOT FALL
2.1706745212500005,0.7615060794999999,9.459448068750001,-0.00011833425000000004,0.0008628485375000002,0.0005477219375,0.011270873077424966,0.010945189743696187,0.009563535296159971,0.0009181878444931285,0.0014216184487667388,0.0008288664737649597,0.8324152283002227,-0.722781133383705,1.0151532166328492,0.5942592154857538,-0.07838150435095001,0.9793617407638093,1.0427090482344736,0.7062735645753997,3.2254707986125952,0.8880438137672946,0.464406383386462,2.6581458494474415,2.2080536,0.7786255,9.4960785,0.00302124,0.004440308,0.003952026,2.1481934,0.7235565,9.433823,-0.002304077,-0.003005981,-0.00138855,NOT FALL
2.1714820925,0.7610273345,9.45840051875,0.00020057408750000002,0.0005569175125000001,0.0004943150625,0.011042711904937276,0.011923003228790752,0.009058326095174733,0.0010227210464669875,0.0016423756276994917,0.0008650728639352777,0.7321569983487288,-0.6619840780324634,1.3843914630240173,1.0218194932947022,-0.6591910498892537,0.8810487407377664,1.0527839987075787,0.2944313037096209,5.099537103179113,1.73068806367319,0.3445338275659946,2.3023440464499902,2.2080536,0.7786255,9.4960785,0.004089356,0.003372192,0.003952026,2.1481934,0.7235565,9.433823,-0.001235962,-0.004074097,-0.00138855,NOT FALL
2.1706441925,0.759710501875,9.45851993125,0.0003461037,0.00014359075000000004,0.000240666625,0.011167738613812712,0.010630384050332457,0.007498922982562041,0.0008712438286970159,0.0015482702723479316,0.000715957356660199,0.723426588063209,-0.5604384269918243,0.9809575971412595,1.067902999496141,-0.3730224573844921,0.1572064339780331,1.0778401232393753,0.714900152334442,7.161854514838465,2.9189267438747386,0.1096182279042095,-0.24603695644008639,2.2080536,0.7786255,9.4960785,0.004089356,0.003372192,0.001815796,2.1481934,0.7235565,9.433823,-0.001235962,-0.004074097,-0.00138855,NOT FALL
2.1681900075000002,0.757645799125,9.459088906249999,0.0006911580375,-0.0006426069749999999,5.4103974999999994e-05,0.010545184511398718,0.01175514230641426,0.008334420635643176,0.001022775083372237,0.0018147571426738824,0.0008780890942153019,1.049952282406477,-0.666340148704251,1.2981249536669945,1.0691446384930239,-0.7126089892792313,-0.3140533735201813,2.602303449835145,0.4792203866648457,5.935585326450983,1.5535113533008529,0.15204336295550647,0.4376335432293872,2.2080536,0.7786255,9.4960785,0.004089356,0.002319336,0.001815796,2.1481934,0.7235565,9.433823,-0.001235962,-0.005142212,-0.002441406,NOT FALL
2.1651975675000004,0.7565387747500001,9.459956349999999,0.0006911600750000002,-0.0009626498750000001,-0.00011948727499999995,0.007845279021420676,0.010518407732303515,0.006345469972941294,0.0010500960355283198,0.0017408994585453262,0.0009255372608875475,-0.034441763915652325,-0.44281369896143713,1.3474862572266408,0.9390452818378944,-0.45822922103634933,-0.0206469624231734,-0.7642925260658182,0.5262718456354429,4.6462979827008315,1.2600355961920053,0.09486726276194091,-0.027295553781973236,2.1793213,0.7786255,9.488892,0.004089356,0.002319336,0.001815796,2.1481934,0.72595215,9.445801,-0.001235962,-0.005142212,-0.002441406,NOT FALL
2.1648689275,0.756299593,9.46031554375,0.0005582159500000001,-0.0007498018875,6.593875000000023e-07,0.008060569370568262,0.010605018550968619,0.008225467402826503,0.001056701676415308,0.001619507126811642,0.0010988462523546857,0.5840253048432885,-0.5923133242749958,1.3730574822344648,0.5881849605958404,-0.9323717115698454,0.6179540476146022,0.35182431037993567,0.5734464222451732,3.9964556460234624,1.1882867635050935,0.8999862927385536,1.3279192547628815,2.1912994,0.77622986,9.493683,0.004089356,0.002319336,0.003952026,2.150589,0.72595215,9.4410095,-0.002304077,-0.005142212,-0.002441406,NOT FALL
2.1668430350000003,0.758364678375,9.458969150000001,0.00031979271250000003,-0.00033648161250000007,0.00012080428750000003,0.008776741563759538,0.011512865475016466,0.00909165868234453,0.0011510356872014241,0.0018834787813121925,0.0011407483171444216,0.4494333567233067,-0.5183631087663942,1.1318609419244294,0.7197702682148036,-0.6500069693562455,0.35543010628929544,0.30961573660800035,0.6167099375418017,2.821200575057868,0.8069189100685867,0.5780409244872229,0.6810204598498752,2.1936798,0.78341675,9.493683,0.004089356,0.003372192,0.003952026,2.150589,0.72595215,9.4410095,-0.002304077,-0.005142212,-0.002441406,NOT FALL
2.1686388037500004,0.760699272,9.4589987,-1.1914137499999982e-05,0.0004632583125,0.0002539694875,0.010611102427203771,0.01052478393590819,0.008909118476524569,0.0008406640272897185,0.00124716274516654,0.0009982915520523551,0.8106352758976565,-0.05148649004366853,0.863624273477081,0.47482028857514835,-0.2406637750856278,0.6712618357942606,0.4800618894374167,0.8671854056201305,2.635999021828149,1.5381812793593683,0.6993807129144258,1.370174318685983,2.198471,0.79060364,9.493683,0.00302124,0.003372192,0.003952026,2.150589,0.7283478,9.438614,-0.002304077,-0.003005981,-0.00138855,NOT FALL
2.170583725,0.762165830875,9.458220887500001,0.00012084895,0.0005437490250000001,0.000414190775,0.010872128150637013,0.011377660602725773,0.008747759435626662,0.0010884491796755936,0.0014489794142651493,0.0009932333216819823,0.7038939867972492,-0.3748638956744823,1.0354013630970946,0.9685688056103086,-1.072194123426797,0.750357317468713,0.10664248186020586,0.5778213247580992,3.402566247744357,1.7588923796744362,2.5074422131954393,1.2130280317984825,2.198471,0.79060364,9.493683,0.004089356,0.003372192,0.003952026,2.1529846,0.7283478,9.438614,-0.002304077,-0.005142212,-0.00138855,NOT FALL
2.1701644925000005,0.762465286125,9.45771254375,0.0001868444,0.00035682705,0.0002539992125,0.010562209337169596,0.010019085734467812,0.00686499973652309,0.0009779940126047246,0.0014440696072249505,0.0008263350777232214,0.7568447507111004,0.090879946733535,0.3592442896766053,1.0176094492655858,-0.7467199703122877,0.35995672151160585,0.41617210287979534,0.337616113912397,2.772203848843345,2.3410405776799834,2.033897746813378,0.3698028087179339,2.198471,0.79060364,9.484116,0.004089356,0.003372192,0.002883911,2.150589,0.73313904,9.438614,-0.001235962,-0.005142212,-0.00138855,NOT FALL
2.19362792875,0.8684978478749998,9.4452028,0.0001445766375,0.0005283110875,0.000198612275,0.04324925438453879,0.18496889088376262,0.02402960553640036,0.0010445312610722602,0.001512928098138335,0.0009213844425297586,1.0244624361179704,1.1494571264405837,-1.0319608802840978,0.578329154392626,-0.7842032081609138,0.42015041221305316,-0.7015311799997677,-0.6628276793943431,-0.508672866133622,2.165952034330606,1.7864904351705357,0.3598715231949199,2.2798767,1.2023926,9.484116,0.004089356,0.003417969,0.002883911,2.150589,0.73313904,9.395523,-0.002731323,-0.005142212,-0.002090454,NOT FALL
2.2167919174999997,0.9750694252500001,9.43203525625,0.00012864705,0.0007797143875000001,0.0001298593,0.050181286305354345,0.21484781085964608,0.026655905710085418,0.0010721588979018325,0.0016475362455953475,0.0009641049582413523,-0.022010603102590346,-0.0004884970154416284,-0.04867425604351735,0.52484907789776,-0.8107129628138667,0.29831609956636906,-1.8970486868052168,-1.9922483755127294,-1.8417065922270326,1.7946553519794861,1.1318158656848327,0.30286372711471055,2.2798767,1.2071838,9.467346,0.004089356,0.003417969,0.002883911,2.150589,0.73313904,9.395523,-0.002731323,-0.005142212,-0.002090454,NOT FALL
2.2404649725000003,1.0804437610000002,9.41901666875,-5.9349662499999965e-05,0.0010835644249999998,0.0001278846125,0.04488364688710682,0.18560128955058644,0.02385477903939586,0.0010858751962143248,0.001660683438071791,0.0009559431450701252,-1.1043056964736995,-1.1491837733393437,0.9310897718741107,0.6336123061517408,-1.136498673249052,0.11401863481862716,-0.648745223281098,-0.666908910723643,-0.7294514432302881,2.415121391063221,3.050890380103638,-0.1940040877482243,2.2798767,1.2071838,9.467346,0.003662109,0.003417969,0.002182007,2.150589,0.74749756,9.383545,-0.002731323,-0.006164551,-0.002090454,NOT FALL
2.2663818362499994,1.18764419125,9.40638680625,-0.0002873829374999999,0.0018278253624999998,-7.619874999999958e-06,0.007174044700067102,0.008627958128450684,0.0068639923971464505,0.0010701106204643442,0.0015976512764054476,0.0010533268788157166,-0.32213623851698847,-0.17918006393300087,-0.5825063588541949,1.0904649930541097,-2.0986484712539606,0.10007379184281856,0.1415169375787304,-0.412932691886859,0.230653808348527,3.497986133921346,7.093749951344025,-0.3781852304285205,2.2798767,1.2071838,9.419464,0.003662109,0.004486084,0.002182007,2.2463531,1.1664886,9.383545,-0.002731323,-0.006164551,-0.002090454,NOT FALL
2.2658430137499996,1.1886619525,9.406656112499999,-0.00011401965000000001,0.0020935190375000003,-0.000288001025,0.007238888843561279,0.008696994898713206,0.008388177505787119,0.0012602332767650013,0.0019814712048664904,0.0010626801743836075,-0.37728244934987704,0.11971578282563702,0.013302112843608327,1.145064476547666,-1.3734644321004361,0.04668398270563301,-0.019057123310525448,0.3258549450876056,0.16934518631736628,2.1856248292693463,3.635016872737788,-0.5959690254661227,2.2798767,1.2143707,9.429047,0.003662109,0.005554199,0.002182007,2.2487488,1.1664886,9.383545,-0.002731323,-0.006164551,-0.002090454,NOT FALL
2.2642267237500002,1.18884124625,9.4064467,-0.0001807681375,0.0024118540875,-0.001100153375,0.008275673834033761,0.011280889782647274,0.008964032996020836,0.0012450487094422225,0.002040309614700727,0.0017493084961456293,-0.5208329290218509,1.4487507427810453,-0.5150832322566149,1.3131001082492963,-1.6106838296489054,-0.7910373852055964,0.09689473846482688,6.590672170603156,1.5171387984136988,2.669566375773085,3.860013781583299,1.179087448315018,2.2798767,1.2454987,9.429047,0.003662109,0.005554199,0.002182007,2.2391815,1.1616974,9.373978,-0.002731323,-0.006164551,-0.007415772,NOT FALL
2.2611137450000003,1.1925228175,9.4070152625,-0.000274044825,0.002784932975,-0.0013261754,0.009467517498107692,0.010656796226326348,0.008398819326985404,0.001173850701017071,0.0016446615967122232,0.0018001980201786038,-0.4523700466043061,1.2571655590334423,-0.5281479161889836,0.5495178056429617,-0.8498000836523191,-0.42637671281980616,-0.003481376050817886,6.445620005184098,2.171244684121878,2.4012788269115557,2.5051094339504623,0.5959419776008432,2.2798767,1.2454987,9.429047,0.003662109,0.006622315,0.002182007,2.2343903,1.1616974,9.373978,-0.003799439,-0.00402832,-0.007415772,NOT FALL
2.2570432737500004,1.1933307712499999,9.40794300625,-0.00045946849999999994,0.0027179865375,-0.0010324427875,0.009973195187986977,0.010911277586769947,0.008917646500231179,0.0012675938738406418,0.0016816485784010504,0.001968462043945639,-0.4184226521207208,1.0101356186019816,-0.5683110289302672,0.5888293492452534,-0.7559574814435969,-0.5019686076945158,0.5111171038835374,5.385493286527796,1.4981930425410077,1.6432820334163667,1.9834966090953063,0.0885152008757526,2.2798767,1.2454987,9.429047,0.003662109,0.006622315,0.002182007,2.2248077,1.1616974,9.373978,-0.003799439,-0.00402832,-0.007415772,NOT FALL
2.2533027725000006,1.19231320125,9.40863175625,-0.000645816525,0.0023456749750000003,-0.0004850334,0.009369991419299405,0.010611878600647157,0.0079830836855948,0.0011824046206626454,0.0015740904354269245,0.002229249559940416,-0.3837395463220934,1.2067170572769934,-0.6486325365020641,0.2474737840334901,-0.6346744817499312,-0.6409260137478104,0.26193960023012464,6.57550713888878,3.699622917586484,0.7023008880047183,1.161222980264908,-0.15362545604919697,2.2750854,1.2454987,9.433823,0.002593994,0.006622315,0.003250122,2.2248077,1.1616974,9.373978,-0.003799439,-0.002975464,-0.007415772,NOT FALL
2.2516260200000002,1.19060783875,9.40955891875,-0.000659166525,0.0019743156249999996,0.00043392961250000004,0.007725035026868869,0.0088364789559458,0.006985304118488406,0.0011758776991026211,0.001470091310534871,0.001402893807274659,-0.7619305676860174,-0.39872603411153756,0.2354394304273761,0.2753392757029605,-0.28130340476594784,-0.779947561717319,1.1730508176548424,0.10904924415610395,0.6423387534421998,0.7872133694839119,1.624824723995574,0.7639075467022027,2.2679138,1.2095795,9.433823,0.002593994,0.006622315,0.003250122,2.2248077,1.164093,9.393127,-0.003799439,-0.002975464,-0.003143311,NOT FALL
2.25174618125,1.1882131525,9.409529175,-0.000578877375,0.0015615697499999999,0.0007000077375000001,0.008511201869758131,0.008047517473233184,0.008038324487688485,0.001323949074962953,0.001646465038406187,0.0009014865484531611,-0.4487355168246703,-0.21548947310856126,-0.08426465331516432,1.207042522236088,-1.4248925203669418,0.5801252228702001,0.563548956854043,0.2297949927951799,0.7402843568539899,2.6915095726976945,2.906135366272826,0.22963474294886987,2.2702942,1.2071838,9.433823,0.004714966,0.004486084,0.003250122,2.2248077,1.164093,9.383545,-0.002731323,-0.005096436,-0.001022339,NOT FALL
2.25360222625,1.1869863475,9.40878150625,-0.0003272584,0.001376175425,0.0005130866625000001,0.008030344120766966,0.007533095433120003,0.007521358745056219,0.0012337435628955334,0.001534029386486189,0.0010110972989130045,-0.4361591454826754,-0.4200828065157119,0.18743574059090776,1.1249621286938694,-1.5714102298379218,0.26833699961293345,-0.0013316082897190107,-0.10261456757505227,1.7654924011936757,3.11731426595672,3.7775114562879146,0.2670962570648667,2.2702942,1.2023926,9.433823,0.004714966,0.004486084,0.003250122,2.2343903,1.164093,9.383545,-0.002731323,-0.005096436,-0.002090454,NOT FALL
2.2560859774999997,1.1874353362499999,9.40857171875,-0.00010122714999999997,0.0012029926,0.00023270670000000003,0.007413343799982849,0.007557949447307824,0.00782060803895844,0.001166453471206086,0.0016791808312382082,0.0008406087175541662,-0.4722683716968148,-0.46609992798013333,-0.3777901851808735,1.4431073708858477,-1.6430528823124648,-0.3191072648506733,0.46866898492062425,0.12580863577398116,1.6987617945462352,3.829825944391697,3.7164188879017557,-0.5389033026143739,2.2702942,1.2023926,9.426651,0.004714966,0.004486084,0.002182007,2.2343903,1.164093,9.383545,-0.002731323,-0.005096436,-0.002090454,NOT FALL
2.2580618037499995,1.1882135349999998,9.407854143749999,-8.732986249999997e-05,0.0013885747,0.0001793006125,0.008066861279696155,0.007484379263791664,0.007886395910915804,0.00128207625650725,0.0017925730612201444,0.0009901681570109884,-0.5577531805639068,-0.48230341317316944,-0.19624698472301733,0.8972101908487079,-1.4501757995568934,0.22061899495847836,0.718825205538351,0.21354117168423725,1.471323402278009,2.2058821549947556,3.0143378241563648,0.19055219812331714,2.277481,1.2023926,9.426651,0.004714966,0.004486084,0.003250122,2.2343903,1.164093,9.383545,-0.002731323,-0.005096436,-0.002090454,NOT FALL
2.2615333649999996,1.189201165,9.4080635625,0.00012644865000000004,0.0016416754500000001,-6.0074337499999974e-05,0.00968189577282129,0.01129330143784468,0.007941338290228084,0.0019690013895612424,0.0015135582822235231,0.002445244987900353,0.8463957943333879,0.5986926718010559,0.4439672211746827,0.40667033846266404,-1.4297768146241576,-0.7132814082589373,2.406895450231504,1.7823541941326368,1.9790462278533454,1.1421996674677546,4.328978649402977,2.1464207402726716,2.2942505,1.2311249,9.436218,0.005783081,0.004486084,0.005371094,2.2343903,1.164093,9.383545,-0.004867554,-0.005096436,-0.008468628,NOT FALL
2.26210213125,1.191594885,9.40749458125,0.00039399827500000004,0.00191977425,4.654553749999998e-05,0.016754455421682562,0.013675452126448131,0.009107904074361548,0.0031395950957361163,0.0020605095021932894,0.004098265386073347,-1.0911604078529427,0.29286687507994086,0.11499564460192421,1.42255795946176,-0.30088831728096826,0.798957790572434,3.4382377735560636,0.7068024628003324,0.6053321422435141,3.417436380863008,1.7521924118694727,3.553375254866215,2.2942505,1.2311249,9.436218,0.013244629,0.00769043,0.014953613,2.1912994,1.1545105,9.383545,-0.004867554,-0.005096436,-0.010604858,NOT FALL
2.2617727312500002,1.1926719675000002,9.4076439375,0.00010140646250000006,0.00239869775,-0.0006460148750000001,0.01742932724262179,0.014231712981768684,0.008085112985595291,0.0031599875207091598,0.001686816110068481,0.0043010632525029594,-0.9455715970407288,0.14123821746136733,0.16529337056168242,1.6246052463318705,0.12610242203841338,1.0581410810721479,2.5357349070467894,0.23215258205593292,0.9739845431522336,3.809696416581218,1.8858452298773871,3.0490188025540705,2.2942505,1.2311249,9.436218,0.013244629,0.00769043,0.014953613,2.1912994,1.1545105,9.388336,-0.004867554,-0.002975464,-0.010604858,NOT FALL
2.2597980562499997,1.1959632912499998,9.40797298125,0.0001414505375000001,0.0024248357875000003,-0.0009658769625000001,0.019177318708247793,0.015370162116631949,0.009039979445304134,0.0032678247142161553,0.001831234593978081,0.004290239223436467,-0.7875550124376629,0.4326365407745382,0.07813399460304005,1.43630240965306,0.06523259927388224,1.2538274477872953,1.3878431823861108,1.542301710328501,0.42864025972463304,2.989883187117538,0.9236683830872665,3.4507522979657317,2.2942505,1.2526703,9.436218,0.013244629,0.00769043,0.014953613,2.1912994,1.1545105,9.388336,-0.004867554,-0.002975464,-0.010604858,NOT FALL
2.2559673425,1.1968006174999999,9.40833176875,-0.00036491964999999996,0.00259782795,-0.0006063417375000001,0.018562088749759377,0.013490364166348268,0.008657325440755103,0.0028775259196961683,0.001804894153849,0.004312125901034923,-0.6280068778474668,0.5765053943463475,-0.5270384933428917,2.415522647463352,3.675626794933722e-05,1.2814945708406946,1.1090362767303281,2.946448451021774,0.14379758765457806,7.737205530919715,0.9922675385762618,3.0416929489053537,2.2918549,1.2526703,9.429047,0.013244629,0.00769043,0.014953613,2.1912994,1.1545105,9.385941,-0.004867554,-0.002975464,-0.010604858,NOT FALL
2.2548599387499997,1.19620229,9.4087508125,-0.0005249374,0.002079417925,-0.00029983107499999994,0.013355786049934454,0.012058068369287,0.008266433387643156,0.001763035003135726,0.0016725417431687451,0.003146090430342208,-0.6005001711886763,1.0516233165147533,-0.3524616380776045,0.7422414467663069,-0.2440608069056311,0.58505394746028,1.0236298623399334,4.29143745618702,0.09647009333056156,1.0511827194415844,0.22968794085954158,-0.19311506544978574,2.284668,1.2526703,9.429047,0.004714966,0.005554199,0.007507324,2.205658,1.1712799,9.385941,-0.003799439,-0.002975464,-0.005279541,NOT FALL
2.25575810875,1.1954248525,9.40896004375,-0.0004325953625,0.0018942158000000001,0.0005930003875000001,0.012858055620312456,0.011557373378886467,0.00820997790770226,0.0017200225518030079,0.0016049144413925421,0.0027735905628533727,-0.9537848949166287,1.3572345278718487,-0.41311665904679584,0.6826043047857776,-0.05030308058056228,0.24324336671055324,1.5596898078197086,5.777001073060669,0.1630946109159015,1.2621476074735813,0.6181248417830876,0.2241759130933696,2.2798767,1.2526703,9.429047,0.004714966,0.005554199,0.007507324,2.205658,1.1712799,9.385941,-0.003799439,-0.002975464,-0.005279541,NOT FALL
2.2580026774999995,1.19330025375,9.409258906249999,-0.00039271722499999997,0.0016681935375,0.0010463769125000002,0.010989649624191572,0.009119707244080585,0.008052912983081585,0.0015648777087605838,0.0017017903091434028,0.002534777209526333,-0.8664289657766328,0.09648103694287129,-0.10538001375865867,0.9833062218526062,-0.3855187626404621,0.06255051794192837,0.4676783974630183,-0.37203741408752267,0.4067900596053322,1.8581685351394484,1.3924196436177176,0.9415854467637157,2.2798767,1.2167664,9.433823,0.004714966,0.005554199,0.007507324,2.2272034,1.1712799,9.385941,-0.003799439,-0.00402832,-0.005279541,NOT FALL
2.2610252525,1.1927021100000001,9.40833175625,-0.00014109392499999998,0.0016556020499999997,0.0007793510625,0.00900079354957071,0.00827547796348645,0.007230791609928309,0.0013877998714543172,0.0015889343769438366,0.0015138182593175391,-0.9998435225120108,0.04149759677011451,0.46340983828982135,1.2996108858612316,-0.7084901266212483,1.2892814240059733,1.4441857445402118,0.11991350666451606,0.739597160538517,2.9006970235808875,2.1360398371612535,2.7796975227151064,2.2798767,1.2167664,9.433823,0.004714966,0.005554199,0.006439209,2.229599,1.1712799,9.393127,-0.003799439,-0.00402832,-0.002090454,NOT FALL
2.2624912325,1.19336032875,9.408272431250001,-0.0002341739,0.001682109825,0.0006330588875000001,0.009884112468979894,0.009569159909641932,0.008106009334802062,0.0012275172116409773,0.0017524199481356044,0.0011559654827400015,-0.06304173110322163,0.9262043828147296,0.038245724785103186,0.7242533694083142,-0.746660994380194,0.6652392757410941,2.4145781749369535,1.7761086776453379,1.3631516687532024,2.2839846531536914,2.4393252169197153,0.7606283072108893,2.2990265,1.2287292,9.433823,0.003662109,0.006622315,0.004302979,2.229599,1.1760559,9.381165,-0.003799439,-0.00402832,-0.002090454,NOT FALL
2.26329918375,1.19371890875,9.407674474999999,0.00019320426250000008,0.0018675128999999999,5.970833750000001e-05,0.01832204463241238,0.016288409998532656,0.009284907290160451,0.00181889586267077,0.0020895747384135524,0.0015685768371543672,0.5947600550112644,0.992258845109531,0.24529816871289314,0.30681534763369084,-0.23724430157674994,0.17011125304385616,1.7266488293568445,1.4968234200774537,0.5264278848507118,0.29658535284507215,1.0542942991593902,0.07675423619433408,2.3253632,1.243103,9.433823,0.004714966,0.00769043,0.004302979,2.217636,1.1616974,9.381165,-0.004867554,-0.00402832,-0.003143311,NOT FALL
2.26563282125,1.19437713625,9.406567625,7.342141250000003e-05,0.0019605958625,0.00013962446250000003,0.019965540208686412,0.018893464833019933,0.008969405261603149,0.0017607679368716914,0.0021393894280129244,0.001826025021282286,0.3401504540772335,0.6925981972499472,0.13136263298631506,0.27783568852783214,-0.4910520296498239,0.3289408381256693,0.5237029287001076,0.07550962896991331,0.2810036969720251,0.530011804815925,1.358453482752525,-0.49389426204669107,2.3253632,1.243103,9.431442,0.004714966,0.00769043,0.004302979,2.217636,1.1616974,9.381165,-0.004867554,-0.005096436,-0.003143311,NOT FALL
2.265603065,1.1948560750000001,9.406926737499997,7.4066875000000455e-06,0.00237162955,0.00011311082500000003,0.01997110166757897,0.019112287887511663,0.009327747064864729,0.0018509000429936485,0.0023541629344244522,0.002046905068595273,0.3497385191917651,0.6063486908392718,0.047050947230914755,0.1715770748353773,-0.6413399698918872,0.25215394123808677,0.5201122452210485,-0.10438470098645558,-0.07221239926602196,0.2314227918740559,0.5650485571129398,-0.7404464152807559,2.3253632,1.243103,9.431442,0.004714966,0.00769043,0.004302979,2.217636,1.1616974,9.381165,-0.004867554,-0.005096436,-0.004211426,NOT FALL
2.2648851487499995,1.1948562725,9.40740529375,0.00013980312500000005,0.0028898459,-0.0006204575499999999,0.018899604098869337,0.018023838691306682,0.008816057971357337,0.0016964720390854546,0.00201301844930096,0.0019977212253125863,0.5556407633808507,0.607755319672074,0.30750494176220605,0.22445014566497765,-1.0818831449351263,0.7288132265634286,1.1405326288431432,0.3875706500989824,-0.2510640601720797,0.8835148016363918,2.171703636322418,-0.3407937788249811,2.3253632,1.243103,9.431442,0.004714966,0.00769043,0.004302979,2.217636,1.1616974,9.390732,-0.004867554,-0.005096436,-0.004211426,NOT FALL
2.2624305799999997,1.1962627575,9.407614724999998,-0.00026087654999999997,0.0029825372375,-0.0006610834749999999,0.011749474522498877,0.01264411129783124,0.00785691645697423,0.001034352056544904,0.001848992089600198,0.0019002012848551464,0.9536092923542104,0.05213579444214136,0.19518087026925615,-0.2664787167251863,-1.5145463141511444,0.8926881212478098,1.5086217520952578,0.786999891700928,-0.35017111833293013,1.7385046169929383,3.6730868803395325,0.09253703394358226,2.2990265,1.2335205,9.426651,0.002593994,0.006622315,0.004302979,2.2343903,1.1664886,9.393127,-0.003799439,-0.005096436,-0.004211426,NOT FALL
2.2577316337500006,1.1962328137499998,9.40941011875,-0.0003131658625,0.0031023128625,-0.0007677021749999999,0.007974432284713822,0.008454000157953973,0.007401031557426415,0.0011531783354887454,0.0016177939185228348,0.00155676337451437,-0.14511816475871972,-0.48013279324340746,0.1039549516962581,0.27459502029410254,-0.9816842054317804,0.5512714837351459,0.8669228679580456,0.167837217359311,-0.37481126950104304,0.9619549006383163,1.404987424411554,0.3896937488234733,2.2798767,1.2167664,9.426651,0.002593994,0.006622315,0.004302979,2.229599,1.1760559,9.393127,-0.003799439,-0.001907349,-0.004211426,NOT FALL
2.2557563849999998,1.1963523999999999,9.410367625000001,-0.000299997875,0.0025713113874999997,-0.0005542689374999998,0.006907966779615778,0.008572861159860794,0.00728401620437683,0.0010798876547759191,0.001617327410668504,0.0014100045382228947,-0.524376922175172,-0.5522009410019492,0.16147731884223382,0.7085077439951871,-0.47180158848360393,-0.023513662005635212,1.1753944288039602,0.0686946386389855,-0.23876710951623759,0.7525077760384473,0.4130085035668509,-1.0851410165331477,2.2702942,1.2167664,9.426651,0.002593994,0.006622315,0.002182007,2.229599,1.1736755,9.393127,-0.002731323,-0.001907349,-0.003143311,NOT FALL
2.25524731,1.19506493375,9.41018796875,-0.0002866493875,0.0021202262875,-7.418542499999998e-05,0.00649499061663296,0.009313043297600715,0.006580824372914686,0.0012178869501274275,0.0017653671780070372,0.0011572265452043063,-0.5327840018441695,-0.2933972283236154,-0.0401108649799195,1.4082110014799547,-0.6484668119996061,-0.48027177301581775,1.7998478165428624,-0.6577745500830412,0.29433002041780076,3.471765827381187,1.345288533914184,-0.2384735903766022,2.2702942,1.2167664,9.426651,0.004714966,0.006622315,0.002182007,2.229599,1.1736755,9.390732,-0.002731323,-0.00402832,-0.003143311,NOT FALL
2.25665474375,1.19413777,9.41072620625,-0.00025994931249999993,0.001815241225,0.00036622288750000006,0.007267649363254313,0.008811464484556454,0.006333601339134433,0.001233660233423648,0.0015797410457306362,0.0007992996778893069,-0.4981221219782748,-0.20659105486089024,-0.060008490375717136,1.1850406466289933,-0.7184972353084824,-0.19332771878196134,1.1827161055784625,-0.871156100340559,0.24816025785481166,3.164866234664716,1.9039110369269716,0.3058880794147014,2.2726898,1.2095795,9.426651,0.004714966,0.005554199,0.002182007,2.229599,1.1736755,9.390732,-0.002731323,-0.00402832,-0.002090454,NOT FALL
2.25952835625,1.1947362975,9.409918062500001,1.8180300000000047e-05,0.001549929,0.0002460613625,0.007447914508133172,0.008799108599070914,0.00663624909887677,0.0012683098198806688,0.0015190057346675407,0.000793818251327,-0.12614585038012918,-0.2913856883753558,-0.023090149412597686,1.5974433461776496,-1.436437061689777,0.04919801480625214,-0.38828715273027115,-0.61445967488662,0.1723382847079069,4.407370519677604,3.4088861670509827,0.4567866197808468,2.2750854,1.2119751,9.426651,0.004714966,0.004486084,0.002182007,2.2415771,1.1736755,9.390732,-0.002731323,-0.00402832,-0.002090454,NOT FALL
2.26282043625,1.19455662875,9.4085115625,3.1715200000000045e-05,0.001629274725,0.00012589838749999996,0.008476792637906185,0.008335801564684607,0.007257956176833889,0.0012782030665131363,0.0015494233933175832,0.0007317745891924728,0.10903236383217263,-0.18925532487367094,-0.25233660972052097,1.505886702198101,-1.4844428452235636,-0.3297818885588881,-0.16707217081636383,-0.7474267675240993,-0.36532375343120815,4.151821688954865,3.178451749092498,-0.09074451372649328,2.284668,1.2119751,9.424255,0.004714966,0.004486084,0.001113892,2.2415771,1.1760559,9.390732,-0.002731323,-0.00402832,-0.002090454,NOT FALL
2.26458626,1.1955448274999998,9.408093231249998,-0.0003135355,0.0019350212625000001,-0.00015391115000000003,0.009151698770837553,0.008027216136665547,0.007024317871216805,0.0012126980305262416,0.0013422867087443141,0.0011322161872865547,0.34145678324852186,-0.2776667961046439,-0.0627793975760798,1.0287643572942473,-1.3952780788548977,-1.4305642329018966,1.064498335049593,-0.49016722717241556,-0.5574390000381837,3.697336762901661,3.9972079504741904,2.6959546805473815,2.2966309,1.2119751,9.424255,0.004714966,0.004486084,0.001113892,2.2415771,1.1760559,9.393127,-0.002731323,-0.00402832,-0.004211426,NOT FALL
2.26572304,1.1958437087499998,9.407793625,-0.00024660823749999997,0.0021471155,-0.00019415709999999996,0.012049296705789496,0.009074993749518418,0.007788044002066415,0.0015507074549284776,0.0017765964497229246,0.0014786131611003908,0.6208323836849574,-0.286649606354221,-0.2691540698229931,1.3717741021599166,-1.2530925432751054,0.23843844040165052,0.9318454110486551,-0.55610366303703,0.34126974935022414,2.6687859778973486,2.862819177422195,2.853724551344409,2.3062134,1.2167664,9.426651,0.004714966,0.005554199,0.005371094,2.2415771,1.1760559,9.383545,-0.002731323,-0.00402832,-0.004211426,NOT FALL
2.265842435,1.1963829112500002,9.407764062499998,-0.0005125014250000001,0.00286484645,-0.0004871291125000001,0.01585674147737407,0.016091607893534084,0.007531817268833016,0.0014287573921658969,0.0017886976226251876,0.0018917456536499298,0.32608926682525324,0.37796987125900955,-0.3165146431097702,1.1468830665568028,-0.9153049994953673,0.0025380406009007494,-0.22291459883283293,3.402094538680542,0.4729783335198383,3.4262218612537074,2.668553034841503,0.9610453679175741,2.3062134,1.2574615,9.426651,0.004714966,0.006622315,0.005371094,2.2319946,1.1449432,9.383545,-0.003799439,-0.00402832,-0.005279541,NOT FALL
